,acc.x,acc.y,acc.z,gyro.x,gyro.y,gyro.z,stateEstimate.x,stateEstimate.y,stateEstimate.z,stabilizer.pitch,stabilizer.roll,stabilizer.yaw
0,0.031749699264765,-0.160740271210671,1.08756279945374,-0.6549211740493771,0.258661419153213,2.69506788253784,1.01073324680328,0.545946359634399,0.314938724040985,-0.26772743463516196,0.32514646649360696,-0.6584680080413821
1,-0.005084704607725,-0.14230814576149,1.03056216239929,-2.4104423522949197,0.25788530707359303,2.38657832145691,1.0122760534286501,0.546007513999939,0.31490644812583896,-0.31780543923378,0.281364142894745,-0.632996201515198
2,0.05989032238721901,-0.211790934205055,0.996928155422211,-3.00620484352112,-0.921570658683777,2.38945889472961,1.01234817504883,0.54619038105011,0.31506872177123996,-0.213120654225349,0.22472950816154502,-0.607933759689331
3,0.08434111624956099,-0.19397389888763397,0.991832435131073,-3.16488671302795,-2.46359729766846,3.28537344932556,1.01378738880157,0.545616149902344,0.316366583108902,-0.22512406110763503,0.23864601552486397,-0.576833665370941
4,0.038666758686304,-0.022998511791229,1.0237940549850502,-2.92214798927307,-3.0577023029327406,3.5465624332427996,1.01515817642212,0.5457914471626281,0.31644344329834,-0.222498521208763,0.17507594823837302,-0.5419363379478449
5,-0.009989120066166,0.07193110138177901,1.07606470584869,-3.06589126586914,-4.58858108520508,3.3512597084045397,1.01494073867798,0.545956909656525,0.316730350255966,-0.052617918699980004,0.12158021330833399,-0.508143246173859
6,0.001415937091224,-0.13311870396137201,0.9705486893653871,-2.14286518096924,-4.33562755584717,3.15002703666687,1.01761734485626,0.5460855364799501,0.31560066342353804,-0.168387517333031,0.07234705984592402,-0.47998222708702104
7,0.08658065646886799,-0.057736188173294005,0.9610081911087041,-1.58738422393799,-3.1986236572265603,3.1751294136047403,1.0173853635788002,0.54625654220581,0.31583455204963695,-0.004067710600793,0.032285291701555,-0.448285311460495
8,0.11636013537645301,-0.558727502822876,1.11223471164703,0.94234299659729,-2.42717361450195,2.7291202545166002,1.01869785785675,0.546292185783386,0.315929621458054,-0.00342255900614,0.023538690060377003,-0.42133280634880105
9,0.08672464638948402,-0.165270313620567,1.04617750644684,0.33095303177833596,-0.885268092155456,3.3403127193450897,1.02087438106537,0.546214938163757,0.31600081920623807,-0.096333719789982,0.030558228492737004,-0.391629964113235
10,0.066519267857075,0.12234539538621901,1.00771081447601,2.84679627418518,0.9770472645759579,2.4760749340057404,1.02241706848145,0.546191275119782,0.31687319278717,-0.131772264838219,0.043841019272804,-0.36463263630867
11,0.006054839119315,0.009481966495514,0.955142974853516,0.907983243465424,-0.033547434955834995,2.81800103187561,1.0225182771682702,0.5459611415863039,0.31721061468124395,-0.034965474158526,0.084601879119873,-0.33723047375679
12,0.11790440231561698,0.10648674517869999,1.00431716442108,0.9049422144889828,1.14949858188629,1.8737450838088998,1.02411448955536,0.545923113822937,0.317358464002609,-0.089499428868294,0.08947632461786299,-0.31683129072189303
13,0.036164823919535,-0.141484901309013,1.00372159481049,0.03249691426754,-1.15590584278107,2.17887282371521,1.0242372751236,0.545202553272247,0.31852394342422496,0.007620833348483001,0.150037735700607,-0.29364079236984303
14,0.068866468966007,0.042802203446626996,1.05709457397461,-0.117835737764835,-0.339459717273712,2.23705673217773,1.02498590946198,0.545261442661285,0.31879147887229903,0.041471485048533,0.13045543432235698,-0.273304253816605
15,-0.05925177410244999,-0.10583599656820301,1.03168129920959,-3.27992010116577,-0.542018949985504,2.4771060943603502,1.02729845046997,0.5453073978424071,0.31896960735321006,-0.07060278207063701,0.09246756136417401,-0.24920210242271398
16,0.070954948663712,0.022604702040553,0.9383693337440491,-1.27610111236572,0.393193751573563,1.98536145687103,1.02818667888641,0.5447551012039179,0.320947855710983,-0.041310720145702,0.11323117464780802,-0.22808134555816603
17,-0.0007117781788110001,-0.08721960335969901,0.961118996143341,-4.11874771118164,0.318250149488449,1.91769933700562,1.02978694438934,0.544845223426819,0.321236580610275,-0.083840847015381,0.06334196031093599,-0.20750819146633104
18,0.24402751028537698,-0.6417909860610961,0.9689470529556271,-3.48746609687805,0.8100441098213199,2.32723307609558,1.0306476354599001,0.545094549655914,0.321572452783585,-0.058594662696123005,-0.004674074240029,-0.18650417029857602
19,0.203915432095528,-0.520550608634949,1.00173723697662,-3.5488517284393297,-0.214540719985962,2.0977990627288796,1.0321966409683199,0.544606924057007,0.32182008028030396,-0.08601426333189,-0.0034601222723720003,-0.16173954308032998
20,0.054867558181286,0.047770813107491,1.0171891450882,-4.40616846084595,-1.20401585102081,2.5867972373962402,1.03207409381866,0.5440815687179571,0.318690836429596,0.036940947175026,-0.006226460915059,-0.137678533792496
21,0.028166253119707,0.10539609938859901,1.0204681158065798,-2.18686008453369,-1.6550176143646202,2.1780025959014897,1.03272533416748,0.544412851333618,0.318856507539749,0.09433867037296301,-0.081524670124054,-0.114589653909206
22,0.082472801208496,0.076552793383598,0.9856596589088441,-2.7209746837616002,-1.21927547454834,2.2369050979614302,1.03336024284363,0.544601559638977,0.31901615858078003,0.147212937474251,-0.13772439956665,-0.09175768494606
23,0.31091344356536893,-0.47885182499885603,0.9821934103965759,0.36463242769241294,0.594853937625885,1.96175825595856,1.03484892845154,0.543914556503296,0.319104135036468,0.10432086139917401,-0.08329956978559501,-0.07006716728210499
24,0.16258931159973097,-0.173019498586655,0.940621316432953,1.15915608406067,0.976789772510529,2.8039710521698,1.0363872051239,0.544651925563812,0.319155007600784,0.056930925697088,-0.150863245129585,-0.044194161891937006
25,0.043714471161365995,-0.17423246800899497,0.9551072120666501,1.51613450050354,0.107127778232098,1.5715141296386699,1.03875637054443,0.544530749320984,0.31907871365547197,-0.064298860728741,-0.12558005750179302,-0.023550540208817004
26,0.06555003672838201,-0.021198665723205005,0.9719374179840091,1.13058042526245,-1.1003535985946697,1.93888676166534,1.03944575786591,0.5444735288620001,0.31876465678215,-0.012744222767651001,-0.12236552685499198,-0.004081484396011
27,0.314592182636261,-0.172249808907509,1.18402659893036,1.40756547451019,-3.7339141368866002,1.32660150527954,1.03864073753357,0.544708132743835,0.31900957226753196,0.17677581310272197,-0.16155491769313798,0.007021791767329001
28,0.17812879383564004,-0.534713506698608,1.0938028097152699,3.0292220115661603,-1.8298439979553203,1.59427297115326,1.0391703844070401,0.544550061225891,0.319241732358932,0.22989164292812303,-0.127579584717751,0.022201407700777002
29,-0.050413120537995994,-0.579893827438355,1.00935184955597,1.5029673576355,-0.745316922664642,2.14407229423523,1.04070568084717,0.544327080249786,0.320689767599106,0.17659084498882302,-0.09033539891242999,0.04214249551296201
30,0.020614948123694,-0.000752421969082,0.932950615882874,1.36211121082306,2.25517416000366,1.4208735227584801,1.0429897308349598,0.544222056865692,0.320938348770142,0.039405263960361994,-0.069758556783199,0.061232488602400006
31,0.051284734159708,0.047196600586175995,0.9820095300674442,-0.24195991456508603,1.86326682567596,1.71419894695282,1.0455501079559302,0.544281482696533,0.32107475399971,-0.11962455511093101,-0.081673458218575,0.08326883614063299
32,0.055033892393111995,0.035258483141661,0.938091516494751,-0.6247113943099979,2.13004899024963,1.78016400337219,1.04728949069977,0.542662799358368,0.32122090458869895,-0.184972926974297,0.057513877749443,0.098124273121357
33,0.022225916385651003,0.036779068410397006,1.03694903850555,-0.6932212114334101,-1.48858797550201,1.0342721939086899,1.04751300811768,0.5427505373954771,0.325373381376266,-0.072415739297867,0.018232567235828,0.10889190435409499
34,0.023213781416416,0.007105784025043,1.00254380702972,-2.4836230278015097,-3.67245244979858,1.95378303527832,1.04975616931915,0.5428150892257689,0.325683355331421,-0.13114377856254597,-0.014460441656411001,0.12838336825370802
35,-0.06296493858098999,-0.14237619936466198,0.9730969071388241,-3.67666721343994,-5.82494926452637,0.791833221912384,1.04950416088104,0.543065667152405,0.326312810182571,0.06870986521244099,-0.08984366804361399,0.13729754090309101
36,0.050669480115175004,-0.171765774488449,1.03517591953278,-4.02109956741333,-8.24034595489502,0.7880272269248959,1.0505121946334801,0.5433688759803771,0.32318371534347495,0.159754782915115,-0.162342593073845,0.146948471665382
37,0.036066126078367004,-0.17892368137836498,0.944812536239624,-1.8289694786071797,-7.0203547477722195,-0.27869924902915993,1.04993724822998,0.54349958896637,0.32353290915489197,0.392403990030289,-0.20010437071323398,0.142264232039452
38,0.054239738732575996,-0.18155446648597698,0.939188539981842,-1.3598330020904499,-2.99654722213745,0.03342803940177,1.05183565616608,0.543623089790344,0.32366108894348106,0.35832795500755293,-0.22523571550846103,0.145108938217163
39,0.076231852173805,-0.197362467646599,0.895569801330566,0.5877580642700201,-1.5113943815231299,-0.22428342700004603,1.0514670610427899,0.541218936443329,0.317492604255676,0.489063620567322,-0.020638067275286002,0.12976771593093903
40,0.041464835405349995,0.037191465497017,1.00197947025299,-0.706015408039093,4.2055783271789595,-0.45381993055343606,1.05296289920807,0.5420525074005129,0.31719234585761996,0.40415287017822293,-0.118828862905502,0.131765067577362
41,-0.0071168593131010005,0.0033926870673890003,0.94308739900589,-4.0221848487853995,7.141302108764651,-0.585777580738068,1.05495274066925,0.541470885276794,0.316765457391739,0.231919467449188,-0.12182042002677901,0.125832334160805
42,-0.04812793806195299,-0.0029977634549139998,0.986975729465485,-3.4074456691741903,11.3434886932373,-0.951748549938202,1.05473554134369,0.541759550571442,0.31651711463928195,0.23886431753635398,-0.20251730084419198,0.11521206796169302
43,0.264759182929993,0.08732075244188299,1.01976072788239,-5.18466663360596,10.5148344039917,-0.6939595937728879,1.0554773807525601,0.542133331298828,0.31521725654602,0.143828734755516,-0.297311305999756,0.111577406525612
44,0.342799991369247,-0.007490918040276,1.04006671905518,-4.1388220787048295,11.579078674316401,-0.373988121747971,1.05872225761414,0.542627453804016,0.314605176448822,-0.18161930143833202,-0.38551980257034296,0.117092676460743
45,0.20495398342609397,0.082509547472,0.9717662930488579,-0.8222450613975529,6.3293147087097195,0.015915755182504997,1.05778074264526,0.54282820224762,0.314466804265976,-0.06451532989740401,-0.430441647768021,0.112013749778271
46,0.011101487092674,0.026456210762262,0.985862791538238,1.4633972644805902,0.728804111480713,0.43255260586738603,1.0589020252227799,0.542827427387237,0.313495218753815,-0.10201967507600801,-0.41950339078903204,0.11642500013113001
47,0.13602463901042902,0.007945622317493,0.943228304386139,3.7529118061065696,-2.31940984725952,0.5545169711112979,1.06037211418152,0.5410755276679989,0.312995910644531,-0.12666834890842402,-0.230686902999878,0.11916501075029401
48,0.054175224155187995,-0.06517319381237001,0.965542554855347,6.70435905456543,-6.039502620697019,0.935304343700409,1.06329250335693,0.5400211215019229,0.31222486495971696,-0.248695284128189,-0.079468838870525,0.137137100100517
49,-0.026900459080935,-0.053483668714762005,1.06854891777039,5.816906929016111,-6.582385063171389,0.31365925073623696,1.06121695041657,0.542611122131348,0.31138005852699296,0.118862390518188,-0.28560805320739696,0.130611702799797
50,-0.004555213265121,-0.16432817280292497,1.0157173871994,4.467394828796389,-7.03349828720093,0.80806702375412,1.0622855424881,0.542212426662445,0.310867190361023,0.17660559713840498,-0.19233138859272,0.14053286612033802
51,0.060343373566866,-0.130897283554077,0.946958899497986,3.5070183277130096,-3.7883846759796103,0.824975669384003,1.0642229318618799,0.541126608848572,0.31029286980628995,0.129770204424858,-0.046776916831732004,0.15219025313854198
52,0.08347937464714099,-0.231149941682816,1.0227632522583001,-0.723164081573486,-0.703508853912354,0.6127390861511229,1.06403696537018,0.541699230670929,0.309907257556915,0.255702495574951,-0.10426575690507901,0.156503796577454
53,0.28205496072769204,-0.12037036567926401,1.07554030418396,-1.76447093486786,3.6932616233825697,0.756006002426147,1.06639444828033,0.541795909404755,0.309763103723526,0.097166135907173,-0.118574492633343,0.171553775668144
54,0.197033852338791,-0.11030347645282698,0.967875719070435,-2.00923347473145,6.36412143707275,0.47250640392303495,1.06822371482849,0.540425479412079,0.30927103757858304,-0.029912784695624996,-0.012150055728853,0.179496631026268
55,0.293850839138031,-0.09438284486532199,1.02806413173676,-3.66074132919312,6.796924114227299,1.52211463451386,1.06868577003479,0.5405413508415221,0.308957010507584,-0.033882960677147,-0.067573718726635,0.188793003559113
56,0.238702714443207,-0.23211240768432603,1.05522406101227,-3.52206015586853,5.615450859069821,0.9722198247909549,1.06830382347107,0.540735423564911,0.310174286365509,0.051013361662625996,-0.134834289550781,0.193088740110397
57,0.17648836970329299,-0.11420981585979499,0.9445591568946842,-3.0903444290161097,3.7622895240783705,1.35569643974304,1.07092952728271,0.541094183921814,0.309806078672409,-0.150895610451698,-0.202722623944283,0.21308788657188396
58,0.17146882414817802,0.08072342723608,1.1089643239975,1.63150203227997,2.06149005889893,1.28210282325745,1.07190334796906,0.541228652000427,0.309562474489212,-0.16368605196476002,-0.216107070446014,0.225922018289566
59,-0.011466154828668002,0.071381986141205,1.08010852336884,2.64336729049683,0.929633498191834,1.82729291915894,1.07204222679138,0.540319383144379,0.311369240283966,-0.07385173439979599,-0.11511923372745501,0.23666881024837502
60,0.19447499513626101,0.033686555922031,0.964534819126129,6.71516847610474,-1.23134756088257,1.67072463035584,1.07199811935425,0.539977848529816,0.31142225861549394,0.026957085356116,-0.037809964269400004,0.24809281527996105
61,0.435739755630493,-0.041695691645146006,1.0579006671905502,4.82755899429321,1.92514991760254,2.7873501777648904,1.07344043254852,0.540364444255829,0.31137719750404397,-0.034431662410498,-0.035308785736561,0.27698662877082797
62,0.13157123327255302,-0.09787305444479,1.18130898475647,4.598369121551509,-0.829352736473084,1.66461777687073,1.07531690597534,0.5402652621269229,0.31231147050857505,-0.13212488591671,0.011155643500388002,0.298910617828369
63,0.07292875647544901,-0.024583147838712006,0.987632811069488,3.88965797424316,-0.566335618495941,0.65585058927536,1.07684135437012,0.540057599544525,0.31253746151924106,-0.18102177977561998,0.057662356644868996,0.31441012024879494
64,0.115159094333649,0.060207836329937,1.05661344528198,-1.3541485071182298,0.46687257289886497,1.3885229825973502,1.07616329193115,0.539815187454224,0.313030958175659,-0.024428136646748,0.067966900765896,0.31979101896286
65,-0.015120451338588999,-0.015473009087145,0.991506040096283,-1.75591897964478,0.919476926326752,1.2289229631424,1.07693529129028,0.5399344563484191,0.31338185071945196,-0.019735194742680002,0.029894465580582997,0.33353990316390997
66,0.149994045495987,0.076317198574543,1.0031228065490698,-3.9799046516418497,1.43054711818695,1.2354665994644198,1.07867825031281,0.539406657218933,0.31569477915763894,-0.116430401802063,0.036409467458724996,0.34814113378524797
67,0.27837562561035195,-0.047165799885988,1.00772893428803,-4.1549568176269505,5.11577081680298,1.5501698255538898,1.0803816318512,0.539719760417938,0.316079080104828,-0.225602045655251,-0.04603834450244901,0.361817598342895
68,0.129848927259445,-0.033510196954012,1.0552679300308199,-4.20355987548828,2.03365850448608,0.210361421108246,1.08073890209198,0.5400375723838811,0.316617488861084,-0.19243861734867104,-0.13308739662170402,0.367295950651169
69,0.073167741298676,-0.10449256002903,0.9876829981803891,-2.85601449012756,2.58448457717895,0.35476708412170394,1.0824992656707801,0.539494752883911,0.318931668996811,-0.29673555493354803,-0.10772040486335802,0.37550789117813105
70,-0.008842647075653,0.067909918725491,1.0859689712524399,-1.19504415988922,1.42230796813965,0.38982501626014704,1.08318543434143,0.538800597190857,0.31957283616065996,-0.29079809784889193,-0.060803741216660004,0.387646615505219
71,0.08372564613819099,-0.010035024955868999,0.9145062565803531,-2.5991971492767303,-0.759072184562683,0.13646611571311998,1.0832725763320898,0.538846135139465,0.32029008865356395,-0.191172629594803,-0.10271768271923101,0.390293657779694
72,-0.024100378155707997,0.022161569446325,1.01047396659851,-1.18761146068573,-2.89244318008423,0.037979368120432,1.08475565910339,0.539015352725983,0.32388341426849393,-0.203749895095825,-0.142478197813034,0.39193132519722
73,0.034106072038412004,0.007713184226304,0.969231724739075,-1.07731068134308,-4.84673738479614,-0.34897491335868797,1.08609235286713,0.539062857627869,0.324607402086258,-0.188043490052223,-0.166772037744522,0.38907504081726096
74,0.054721925407647996,-0.038103763014077995,0.998349845409393,-0.318377584218979,-3.7697286605835,-0.8263166546821591,1.08588659763336,0.5391623377799989,0.32547971606254605,-0.032476510852575,-0.194932460784912,0.38075906038284296
75,0.22434763610362998,0.0099334763363,0.9783319234848019,-2.4823760986328103,-3.94829034805298,-0.57260137796402,1.08875012397766,0.539310336112976,0.326073348522186,-0.183123633265495,-0.236845925450325,0.378032714128494
76,0.107519276440144,0.020129304379225,0.9509132504463199,-3.1374077796936,-3.64361166954041,-0.8660152554512021,1.09011006355286,0.5372156500816351,0.32407864928245506,-0.1890539675951,-0.06550946831703201,0.374665081501007
77,0.009466812945902,0.003042641794309,0.9300777912139889,-3.04444360733032,-2.1652512550354,-1.62837433815002,1.09146559238434,0.537409782409668,0.324541538953781,-0.19072113931179002,-0.141636669635773,0.361128062009811
78,0.015740092843771,0.023913653567433,0.962867438793182,-6.36746692657471,-1.22183704376221,-1.70085823535919,1.0929492712020898,0.5377443432807921,0.324928849935532,-0.212460443377495,-0.25441572070121804,0.34087935090065
79,0.06931493431329701,0.033143747597932996,0.956902205944061,-6.98926496505737,1.20339667797089,-2.7175219058990496,1.0943078994751,0.537373661994934,0.32347798347473106,-0.232585266232491,-0.298090010881424,0.31861680746078497
80,0.21115887165069602,-0.482627362012863,0.989723563194275,-8.58115482330322,0.638988673686981,-1.7944539785385099,1.09431648254395,0.537825107574463,0.323858112096786,-0.11294872313737898,-0.433855831623077,0.29266294836997997
81,0.14626371860504198,-0.22793625295162198,0.887450814247131,-7.8461480140686,0.9540690183639521,-2.20248365402222,1.09673607349396,0.5376651883125311,0.323921412229538,-0.23662964999675698,-0.49859967827796897,0.272759705781937
82,-0.004042999818921,-0.014701984822750001,0.933635711669922,-5.79300165176392,-1.73230540752411,-2.34442138671875,1.09762048721313,0.537370085716248,0.328023314476013,-0.16735944151878399,-0.540957033634186,0.247765451669693
83,0.029027327895165003,-0.19907520711422,0.913414657115936,-3.24082708358765,-3.9817872047424303,-2.16825246810913,1.09755492210388,0.537689507007599,0.32842093706131,-0.018135963007808,-0.628094494342804,0.22031687200069397
84,0.025320172309876002,0.039057202637196,1.01349532604218,0.090320818126202,-4.73451232910156,-2.26911664009094,1.09887158870697,0.537149846553803,0.328663200139999,0.007691613864154001,-0.594997942447662,0.20030261576175698
85,0.014586099423468002,-0.012763706035912,0.9820576310157779,2.08373022079468,-6.7922673225402805,-2.66386938095093,1.0985796451568601,0.536206662654877,0.329046666622162,0.18905526399612402,-0.5011830925941471,0.16900733113288902
86,-0.023157423362136005,-0.061616916209459006,0.970580518245697,2.56271266937256,-3.1418516635894798,-2.5574929714202903,1.09983313083649,0.536065340042114,0.329241991043091,0.19299471378326397,-0.480455130338669,0.145195618271828
87,0.077126264572144,0.013433709740639,0.9208638072013859,0.09480793774127999,-1.9624352455139198,-3.0312914848327597,1.10205972194672,0.5359978675842291,0.32934722304344205,0.083705917000771,-0.47356483340263394,0.125526577234268
88,0.045493394136429,0.018004924058913997,0.965221345424652,-1.17453336715698,2.4763457775116,-3.52137732505798,1.10199248790741,0.5359206199645999,0.329558312892914,0.18672479689121202,-0.49860405921935996,0.08502390235662499
89,-0.052926257252692996,-0.039115227758885006,0.9592996835708621,-5.47211217880249,4.433696269989009,-3.1176953315734903,1.1035665273666397,0.536245763301849,0.324256956577301,0.086898483335972,-0.5811780095100401,0.057921156287193
90,0.0037854474503549998,-0.005825424566865,0.95342355966568,-5.506841659545901,5.26153326034546,-3.83550405502319,1.1054079532623302,0.536647856235504,0.32389760017395003,-0.034082032740116,-0.673751354217529,0.026159303262830003
91,0.07762343436479599,-0.025254815816879,1.0035828351974498,-5.6624174118042,5.31925821304321,-2.6611921787262003,1.10573983192444,0.5370571017265321,0.323665738105774,0.004126301500946,-0.7754750251770021,-0.011245325207709999
92,0.064897194504738,-0.16313107311725597,0.9342662692070011,-3.02294135093689,3.0105230808258097,-3.00027894973755,1.10925805568695,0.537574946880341,0.31753319501876803,-0.27354782819747897,-0.8430920839309691,-0.021403640508652
93,-0.025837233290076,-0.23660446703434,1.13406574726105,0.516498625278473,0.09241256862878801,-2.22961020469666,1.10891449451447,0.537636995315552,0.31709641218185397,-0.083266273140907,-0.8558651804924008,-0.058895245194435
94,0.087396793067455,-0.027820233255625,1.0025227069854699,5.64026069641113,-2.53752279281616,-2.5186960697174103,1.1088936328887902,0.537313938140869,0.316667675971985,0.05095046013593701,-0.773159205913544,-0.09279286861419699
95,-0.006414930801839001,-0.171834379434586,0.9588212370872501,8.846334457397461,-3.6223204135894798,-1.2843769788742099,1.1102217435836799,0.536059498786926,0.31500864028930703,0.061488948762417,-0.552440941333771,-0.102756828069687
96,0.055123578757048,-0.063243910670281,1.0568876266479499,10.8367757797241,-5.08798837661743,-2.2937259674072297,1.11148416996002,0.5353707671165471,0.314361244440079,0.087327688932419,-0.375861763954163,-0.11891251802444501
97,-0.014943211339413998,-0.07896788418292999,0.997282981872559,11.834451675415002,-3.71233010292053,-1.59753847122192,1.1127552986145,0.536276936531067,0.313759982585907,0.11194021999836,-0.3642837405204771,-0.13222075998783098
98,0.18276247382164001,0.068547293543816,1.01638472080231,7.6519079208374,-3.25950288772583,-1.4861989021301298,1.1133346557617199,0.536357760429382,0.31321993470191994,0.19279144704341897,-0.29553571343421897,-0.150799334049225
99,0.089371681213379,-0.0021775069180879998,0.9941271543502809,4.371299743652339,-0.828101098537445,-0.9838809370994571,1.11558389663696,0.5368564724922179,0.31355294585228005,0.08750034868717199,-0.284279704093933,-0.149387285113335
