,acc.x,acc.y,acc.z,gyro.x,gyro.y,gyro.z,stateEstimate.x,stateEstimate.y,stateEstimate.z,stabilizer.pitch,stabilizer.roll,stabilizer.yaw
0,0.145190864801407,-0.665773034095764,0.965531766414642,-2.3526611328125,1.8341007232666,0.3918531537055971,1.86582124233246,-0.214873760938644,0.291043788194656,0.06186738237738599,-0.29824870824813804,2.6915068626403795
1,0.4512277543544771,-0.329938769340515,1.04373359680176,-1.60858464241028,1.76735031604767,0.816076159477234,1.8660029172897301,-0.21711276471614802,0.29127699136734003,0.036620784550905,-0.1942488104105,2.68883776664734
2,0.23740263283252697,-0.166878670454025,1.01006412506104,-0.579626798629761,2.01832413673401,1.08811318874359,1.8661080598831201,-0.218521982431412,0.291577011346817,0.045720428228378,-0.15898908674717002,2.6980443000793497
3,0.059809345752000996,-0.200273111462593,0.9982147812843319,-0.013857969082892,-1.3336094617843601,1.27827537059784,1.8667147159576398,-0.219251409173012,0.291962385177612,0.02594655379653,-0.181107699871063,2.7138311862945597
4,0.06498984992504099,-0.175834342837334,1.00138688087463,1.74892640113831,-2.03400731086731,1.92413115501404,1.8665406703949,-0.220117583870888,0.29308488965034496,0.096056148409844,-0.185232773423195,2.73261904716492
5,0.12490708380937598,-0.373730957508087,0.9718946218490601,0.801503479480743,-3.4900927543640097,2.3744075298309304,1.86634159088135,-0.222358182072639,0.29339399933815,0.16188482940197,-0.069097086787224,2.74287295341492
6,0.062665946781635,-0.021872173994779996,1.02605938911438,0.039272245019673996,-5.57672119140625,1.15288841724396,1.8661540746688798,-0.22373670339584303,0.293810904026031,0.22956199944019298,-0.04928143694996799,2.7550652027130096
7,0.22632357478141799,-0.07744126021862,1.0162556171417199,-0.24082718789577498,-3.51502156257629,0.39261731505394,1.86611688137054,-0.222847655415535,0.29525351524353,0.2776146829128269,-0.24280646443367002,2.7757363319397004
8,0.39024057984352095,-0.021020740270615002,1.0874963998794598,-5.97610235214233,1.92461240291595,-1.57231462001801,1.86821627616882,-0.224781006574631,0.29580596089363104,0.053798150271177,-0.20077882707119,2.75424265861511
9,0.22098068892955802,-0.17899823188781697,1.0269812345504798,-1.2679899930954,-0.805974423885345,0.5175301432609559,1.8674930334091202,-0.224507957696915,0.29659503698349,0.18123814463615398,-0.323673516511917,2.78070998191833
10,0.066067129373551,-0.007300487719475999,1.02534222602844,-1.1639492511749299,-0.5089488625526429,0.68015456199646,1.86754882335663,-0.22593753039836897,0.29734879732131997,0.192381352186203,-0.28896200656890897,2.78447341918945
11,0.017154900357127,-0.259881883859634,0.971502840518951,0.895194113254547,-0.776338934898376,0.5355131626129149,1.86772549152374,-0.22572910785675002,0.298061937093735,0.18829107284545898,-0.398881047964096,2.7952075004577597
12,0.15123376250267,0.062064636498690005,1.08973789215088,0.622909665107727,0.352846086025238,0.772621035575867,1.86783409118652,-0.22800770401954604,0.298618257045746,0.18238969147205397,-0.260421633720398,2.7930102348327597
13,0.058856211602687995,-0.022203171625732997,0.9466036558151241,1.28775882720947,2.63113498687744,0.976059854030609,1.8692501783371,-0.230347618460655,0.298258244991302,0.03439412266016,-0.11308071017265302,2.78433299064636
14,0.045747984200716,-0.445925146341324,0.936192154884338,3.7468895912170397,2.84009337425232,0.7472834587097171,1.8679845333099399,-0.230428323149681,0.29891237616539,0.189116224646568,-0.16996899247169503,2.80343794822693
15,0.021413752809167002,-0.280426234006882,0.997831761837006,2.23200178146362,0.585995614528656,0.221490085124969,1.86888265609741,-0.230554416775703,0.299498081207275,0.103021435439587,-0.22381962835788702,2.8106651306152304
16,0.127780392765999,-0.444629549980164,1.08272790908813,4.37160730361939,-1.82077360153198,1.10417497158051,1.86893081665039,-0.23232440650463101,0.299980700016022,0.129074051976204,-0.11101779341697698,2.8147952556610094
17,0.52560693025589,-0.101911008358002,1.12490463256836,3.0795290470123304,0.6620690226554871,1.0083231925964398,1.87024807929993,-0.234053552150726,0.29844930768013,0.013616317883134,-0.013354538939893,2.8119928836822496
18,0.31190553307533303,-0.05715741589665401,1.01624369621277,1.4125678539276103,0.21051143109798398,-0.0024722355883570004,1.87014424800873,-0.234995201230049,0.29906246066093395,0.06781417876482,0.006967873312533001,2.8193361759185804
19,0.144127830862999,-0.149851068854332,0.9209769368171691,2.00313496589661,-1.40069830417633,0.555168092250824,1.86939859390259,-0.235803380608559,0.29969716072082503,0.19726926088333105,-0.003616069210693,2.82982230186462
20,0.040900949388742995,-0.205348253250122,1.00638747215271,-0.772867143154144,-3.83833193778992,0.33081093430519104,1.86870324611664,-0.23698678612709,0.29660046100616494,0.314174234867096,0.0008552261861039999,2.83661389350891
21,0.14298389852047,-0.66664332151413,0.996563494205475,-2.9945003986358603,-3.5182731151580797,-0.7225104570388791,1.86856019496918,-0.23749895393848397,0.29700094461441,0.355165421962738,-0.070972666144371,2.8390645980835
22,0.28431630134582503,-0.015190678648651,1.08890438079834,-4.1324605941772505,3.1484158039093,0.749027073383331,1.8685382604599,-0.24045607447624198,0.29718333482742304,0.345882266759872,0.067250482738018,2.8360354900360094
23,0.07058490812778499,0.025350295007229,1.0620831251144398,-3.5012402534484903,2.04467296600342,0.59213137626648,1.86861526966095,-0.240753129124641,0.29395213723182695,0.335124105215073,-0.030351480469107996,2.8440420627594
24,0.07455138117075,-0.7480586171150211,0.970733821392059,-1.92894184589386,0.401076287031174,-0.19539898633956898,1.8687654733657801,-0.24218113720417,0.294152468442917,0.2959617376327511,-0.027677897363901003,2.8397879600524902
25,0.10512994974851599,-0.48809677362442,1.02030503749847,-2.1658899784088104,3.2903566360473597,0.37045404314994795,1.8689649105072002,-0.245175033807754,0.294196248054504,0.22964484989643105,0.10977171361446401,2.82843708992004
26,0.14643305540084803,-0.345552444458008,0.9205594062805179,-1.43238544464111,5.84601068496704,0.760708510875702,1.8680229187011699,-0.243903204798698,0.294801712036133,0.302253484725952,-0.123045101761818,2.8677008152008097
27,0.18708491325378399,-0.16877128183841697,0.9749979972839359,-2.05477666854858,4.170856952667241,0.4789741039276121,1.8682918548584,-0.245133936405182,0.29295545816421503,0.2227513641119,-0.124767072498798,2.86616683006287
28,0.107793122529984,-0.06360962986946099,1.0591228008270301,-1.07414674758911,3.3316936492919904,0.20851811766624398,1.8686926364898702,-0.245593577623367,0.293132752180099,0.141158491373062,-0.20168410241603799,2.8655002117157
29,0.327568173408508,-0.386696457862854,0.933961033821106,-0.099945239722729,2.2106380462646498,0.439249753952026,1.86897253990173,-0.247836410999298,0.29314011335372897,0.067885555326939,-0.10694840550422698,2.85940027236938
30,0.030068099498749,-0.046949818730354004,1.0809471607208299,-1.64081263542175,4.99574136734009,0.244900435209274,1.86854362487793,-0.249956950545311,0.2907027006149289,0.07102089375257499,-0.018016403540969,2.8608832359314
31,0.34728276729583696,-0.6888762712478641,1.01694476604462,0.521679937839508,6.40679168701172,0.7105993628501891,1.8681041002273602,-0.250580102205276,0.290731281042099,0.083341158926487,-0.052662588655949,2.87236261367798
32,0.141829535365105,-0.275663614273071,1.03529071807861,1.10509765148163,2.90335917472839,-0.074238650500774,1.8683348894119298,-0.25055474042892495,0.290860503911972,0.036036379635334,-0.140510961413383,2.8770384788513197
33,0.084370911121369,-0.282989174127579,0.9546299576759342,0.40013760328292797,0.726652801036835,-0.124712124466896,1.8692208528518701,-0.25216984748840304,0.29121232032775896,-0.07345998287200901,-0.098764680325985,2.86504316329956
34,0.013078035786748,-0.33708527684211703,1.06483578681946,1.23338282108307,0.5292652249336239,0.47391310334205605,1.86938226222992,-0.25371626019477805,0.29121047258377103,-0.09511033445596699,-0.055816546082497004,2.86451005935669
35,0.11290180683135999,-0.431525647640228,1.01923048496246,-0.08109082281589501,1.6571991443634,0.039724156260491,1.8687783479690598,-0.25436851382255604,0.29134857654571505,-0.039243120700121,-0.093689277768135,2.8715441226959197
36,0.040311448276043,-0.9561647772789,0.9897214770317081,-0.366815984249115,2.31477212905884,0.037250936031342004,1.8695080280304,-0.257499694824219,0.29147496819496194,-0.11365304887294801,0.071807131171227,2.8630757331848105
37,0.230679616332054,-0.15490417182445498,1.0485544204711899,-2.0722439289093,-0.833812296390533,0.307002454996109,1.8695033788681001,-0.257959514856338,0.291741669178009,-0.107923187315464,-0.041097305715084,2.8696489334106405
38,0.210048660635948,-0.369196355342865,1.16971361637115,-2.61352968215942,-1.0314848423004201,-0.131132110953331,1.86964106559753,-0.259898841381073,0.291936963796616,-0.10293405503034599,-0.011460393667221002,2.86355996131897
39,0.097505912184715,-0.04846298694610599,1.00691568851471,-3.60023641586304,-2.4477093219757102,-0.055622979998589006,1.8696579933166497,-0.25951588153839106,0.29257652163505604,-0.09731403738260301,-0.20692181587219197,2.85590887069702
40,0.052057899534702,0.139440789818764,0.9167936444282528,-2.1824574470519997,3.34934616088867,0.8088107109069821,1.8702071905136102,-0.262324094772339,0.29364234209060697,-0.14402320981025699,-0.08468387275934199,2.85748195648193
41,0.416307240724564,-0.05609112977981599,0.8986919522285458,-5.19372606277466,-2.38999629020691,-1.12635278701782,1.86996865272522,-0.26269805431366,0.294091373682022,-0.07928238809108701,-0.222543299198151,2.8464751243591295
42,0.22225388884544398,-0.204168379306793,1.07911813259125,-4.45186042785645,-3.92930364608765,-1.54125642776489,1.8697966337204,-0.264523863792419,0.29435428977012607,0.001285811653361,-0.21019770205020896,2.84319281578064
43,-0.005985999945551,-0.32114776968956,1.04844236373901,-6.199477672576901,-3.94981575012207,-1.1922390460968002,1.86956381797791,-0.264909118413925,0.295387893915176,0.066821694374085,-0.35344830155372603,2.8325002193450897
44,0.009855344891548,-0.06323216855526,1.05975592136383,-4.4965939521789595,-4.89528179168701,-1.1323903799057,1.8708416223526,-0.266756623983383,0.29579463601112393,-0.012202765792608001,-0.33282285928726196,2.81505012512207
45,0.305111974477768,-0.3599347174167629,1.02226650714874,-2.5504271984100297,-3.84404516220093,-1.10294425487518,1.87136352062225,-0.267246305942535,0.29634305834770197,-0.023781338706612996,-0.42918696999549893,2.7988729476928698
46,0.5133718848228449,-0.039509780704974996,1.0220663547515898,-2.33708834648132,-2.89123940467834,-0.831269145011902,1.87198424339294,-0.26924088597297696,0.296617746353149,-0.026591077446937998,-0.36463102698326094,2.7955133914947496
47,0.18340010941028603,-0.23456846177577997,0.939616322517395,-2.29888224601746,-2.3435525894165,-0.39322412014007596,1.8717654943466202,-0.270598739385605,0.297055453062057,0.044519543647766,-0.36822843551635703,2.79059338569641
48,0.008896473795176,-0.386158347129822,1.05691361427307,-1.4287798404693601,-0.66737174987793,-0.166008070111275,1.87097787857056,-0.27192667126655606,0.297515600919724,0.153996348381042,-0.368461430072784,2.78501033782959
49,0.237660437822342,-0.12224632501602199,0.952970683574676,-0.670144319534302,-1.2361642122268701,-0.530031800270081,1.87100112438202,-0.27332085371017495,0.297948390245438,0.17259471118450198,-0.362317264080048,2.77822351455688
50,0.005825338419526999,-0.074556216597557,1.0396873950958299,-0.9815186262130741,-2.0892231464386,-0.8463991284370419,1.8709839582443202,-0.273943871259689,0.296282857656479,0.181585714221001,-0.42409408092498796,2.76876354217529
51,0.14654226601123801,-0.392953753471375,0.9263986945152279,-3.13476991653442,-0.06077472865581501,-1.6040825843811002,1.87089419364929,-0.273775726556778,0.296751379966736,0.18336883187293998,-0.5817358493804929,2.75229120254517
52,0.08796167373657199,-0.18374456465244302,1.04472219944,-2.6216273307800297,2.09684658050537,-1.83351635932922,1.8710753917694098,-0.275767982006073,0.29701888561248807,0.165181115269661,-0.513348639011383,2.7413763999939
53,0.08525242656469399,-0.17943340539932298,1.0153229236602799,0.20065404474735302,1.4552516937255902,-1.62786281108856,1.8712953329086297,-0.27701994776725797,0.29593321681022605,0.13861782848835,-0.49836167693138106,2.7293527126312296
54,0.017325995489955,-0.095155403017998,1.05101037025452,0.6909744739532471,0.026297183707357,-1.12778186798096,1.87153303623199,-0.27841198444366494,0.296203404664993,0.115888930857182,-0.461658120155335,2.71587634086609
55,0.10637165606021902,-0.021251965314150002,1.00356316566467,4.106378555297851,0.06620593369007101,-1.6946904659271202,1.8700976371765101,-0.280186116695404,0.296451181173325,0.243131741881371,-0.384410679340363,2.69375705718994
56,0.37550893425941495,-0.083064831793308,1.00574254989624,1.87111723423004,0.574233829975128,-1.63099884986877,1.8700928688049299,-0.280287355184555,0.29424354434013394,0.226531237363815,-0.449836134910584,2.6796061992645295
57,0.382520884275436,-0.025924092158675,0.864497303962708,3.2160053253173797,9.74050426483154,-1.43261075019836,1.8706130981445301,-0.28207764029502896,0.294230192899704,0.131515398621559,-0.346193522214889,2.6624763011932404
58,0.632418692111969,-0.398038506507874,0.9278961420059201,-2.14810466766357,-5.27258348464966,-2.8870387077331503,1.87095963954926,-0.28260537981987,0.294281452894211,0.116197623312473,-0.39650130271911604,2.64345765113831
59,0.213782474398613,-0.6830487251281739,1.1765232086181598,1.66875016689301,1.28209245204926,-0.8387378454208371,1.87049877643585,-0.283500462770462,0.294391840696335,0.12495544552803,-0.40180522203445396,2.63438606262207
60,0.278070777654648,-0.212807804346085,0.9825754761695858,3.5172643661499,3.6475830078125,-0.9606930613517758,1.87092757225037,-0.285906851291656,0.292043566703796,0.039551082998513995,-0.24625800549984,2.6218292713165297
61,0.48642009496688793,-0.052934501320124,1.0474102497100801,-0.06721056252718,5.358624935150151,-2.24373483657837,1.8695713281631499,-0.286006569862366,0.292217344045639,0.109835892915726,-0.35780405998229997,2.59955716133118
62,0.37080538272857705,-0.530118465423584,0.9584530591964721,0.20098745822906502,5.23227119445801,-1.8399355411529499,1.86999559402466,-0.288307249546051,0.29212090373039196,0.023355720564723,-0.24027459323406197,2.5874478816986097
63,0.476115822792053,-0.611741065979004,1.04027736186981,-0.940377712249756,3.39675664901733,-1.5528290271759,1.8703331947326698,-0.28794053196907005,0.288711577653885,-0.049189165234566,-0.386270225048065,2.5754401683807404
64,0.385968327522278,-0.08756148815155,1.0628359317779499,-0.7094756364822391,0.248958200216293,-1.84802770614624,1.86989963054657,-0.290766656398773,0.28842568397522,-0.022709673270582993,-0.240194573998451,2.55097913742065
65,0.06671497225761401,-0.234222933650017,0.993606686592102,-0.495597779750824,-0.6487340331077579,-1.4114785194397,1.87006223201752,-0.290493071079254,0.288529932498932,-0.05233551561832401,-0.39068797230720503,2.5385098457336404
66,-0.018494909629226,-0.103041134774685,1.0959233045578,-2.0333311557769798,-0.441080868244171,-1.8046468496322599,1.8701376914978,-0.292534947395325,0.287489622831345,-0.05513422563672099,-0.30174645781517,2.52350783348083
67,0.08986648917198199,0.075858138501644,0.949527025222778,0.6501298546791079,-0.15747380256652802,-1.60327613353729,1.8708398342132602,-0.293901473283768,0.28730711340904197,-0.10849325358867598,-0.26667794585228,2.50885438919067
68,0.116228669881821,0.082987643778324,1.0703529119491602,1.32500791549683,-0.658797144889831,-1.88326501846313,1.8707768917083702,-0.293899595737457,0.287336319684982,-0.09059640765190101,-0.37455341219902,2.49133062362671
69,0.010828262194991,-0.3586908578872679,1.16100943088532,0.45202142000198403,-2.14773750305176,-1.90759062767029,1.87075090408325,-0.295315951108932,0.28646254539489696,-0.04911761730909401,-0.33642449975013694,2.4744842052459703
70,0.117536954581738,-0.8088648915290829,0.964291751384735,-0.307148009538651,-4.38025999069214,-2.1236345767974902,1.8704866170883199,-0.295279413461685,0.28652065992355297,0.008260648697615,-0.45092532038688704,2.44973492622375
71,0.18002009391784698,-0.33489879965782204,1.07758212089539,1.8263419866561899,-5.06775712966919,-2.00683069229126,1.8705115318298302,-0.29813525080680897,0.28633600473403903,0.054700762033462996,-0.24292887747287698,2.4362545013427703
72,0.080239169299603,-0.15884067118167902,1.02558386325836,1.76218056678772,-4.08360052108765,-1.62478244304657,1.87034976482391,-0.29815101623535195,0.286518961191177,0.08771044015884401,-0.351241767406464,2.41487002372742
73,0.033547777682543,0.05018611997366,1.10535097122192,-0.6914973258972171,-3.13040018081665,-2.20973825454712,1.87010586261749,-0.29814231395721397,0.28719362616539,0.123528689146042,-0.45883804559707597,2.3890199661254905
74,0.025577107444406003,-0.152687877416611,1.04281771183014,0.5530561208724979,-1.56909787654877,-1.56032824516296,1.86999356746674,-0.29961326718330394,0.28728944063186607,0.14956314861774403,-0.389882355928421,2.37431597709656
75,0.136764749884605,-0.08058424293994901,1.0329408645629898,2.6845288276672403,-0.364510804414749,-1.1291698217391999,1.87155556678772,-0.300979882478714,0.28743958473205605,0.011738939210773002,-0.30106657743453996,2.37043714523315
76,0.08857438713312199,-0.36034888029098494,1.0792015790939302,3.48409557342529,0.701624155044556,-1.8545750379562398,1.8714895248413101,-0.30119064450264005,0.287926137447357,0.033628609031439,-0.3559117615222929,2.34983515739441
77,-0.042020618915558,-0.164830461144447,1.05921912193298,2.95760607719421,-4.38409566879272,-2.97869038581848,1.8711713552475,-0.30290821194648704,0.288167953491211,0.10883999615907698,-0.248245686292648,2.32487964630127
78,-0.079664841294289,-0.15749244391918202,0.9135844707489009,7.19549989700317,-6.172260284423831,-0.8973446488380429,1.8708976507186899,-0.30478239059448203,0.288341462612152,0.175456345081329,-0.12340334057807902,2.3157525062561004
79,0.022592486813665,-0.165544390678406,1.17268824577332,0.15849283337593098,-2.4570918083190896,-0.33659815788269,1.87102866172791,-0.30609509348869296,0.29015812277793895,0.18077853322029103,-0.10933583974838301,2.30733561515808
80,0.0008085371227930001,-0.08575426042079902,1.09518480300903,-1.81208431720734,-3.13812875747681,-2.0368716716766397,1.8709387779235802,-0.30591782927513106,0.29084706306457503,0.20355820655822798,-0.266272366046906,2.28187012672424
81,0.35483697056770297,0.051369238644838,1.1322057247161899,-5.0163064002990705,-0.17642652988433802,-3.47136664390564,1.87185084819794,-0.30694562196731606,0.291497349739075,0.11753018200397501,-0.29456168413162204,2.25629901885986
82,0.160653591156006,-0.37644112110137895,1.04689073562622,-2.6188971996307404,-1.8348679542541497,-1.7525119781494098,1.8709921836853,-0.307524740695953,0.29227304458618203,0.226345360279083,-0.360669404268265,2.23697423934937
83,0.03507824242115,-0.36907100677490207,1.0831826925277699,-1.44254851341248,-2.0566427707672097,-2.8494715690612797,1.8715413808822599,-0.307355910539627,0.291938871145248,0.19994160532951397,-0.47337204217910794,2.21210646629333
84,0.11848558485508001,-0.19968791306018804,1.0324782133102401,0.33113461732864397,-1.2000857591629,-3.2945256233215297,1.87066125869751,-0.31109374761581393,0.29256191849708596,0.315109997987747,-0.189053416252136,2.17768383026123
85,0.20525380969047502,-0.203541234135628,1.01351928710938,1.73257052898407,-2.36494088172913,-3.02131628990173,1.87130391597748,-0.311884015798569,0.29338029026985196,0.273497849702835,-0.19793380796909302,2.1498692035675
86,0.17201258242130302,-0.16913908720016502,1.01684832572937,4.88678789138794,-2.6704833507537797,-2.46746945381165,1.870481133461,-0.31287816166877697,0.29544523358345004,0.37114679813384993,-0.175261110067368,2.12260913848877
87,0.119251035153866,-0.13043928146362302,1.00837540626526,3.26667952537537,-1.96483719348907,-2.26798033714294,1.87056422233582,-0.31448131799697904,0.296272724866867,0.358190268278122,-0.10042471438646301,2.09396505355835
88,0.115172922611237,-0.410017102956772,1.0305693149566701,1.77388107776642,0.16816827654838598,-2.56727409362793,1.8714424371719398,-0.31447938084602395,0.29733055830001803,0.25280347466468805,-0.180792570114136,2.07422256469727
89,0.24259662628173803,-0.263522028923035,1.00617790222168,-0.9659882187843319,2.7205004692077597,-2.7927370071411097,1.8716176748275801,-0.31515684723854104,0.29710233211517306,0.21086616814136497,-0.21313665807247198,2.04873442649841
90,0.5981848239898679,0.090523548424244,0.8388847708702091,-3.06706500053406,8.073010444641112,-5.5411062240600595,1.87122118473053,-0.315676897764206,0.29791253805160495,0.20427393913269,-0.284811645746231,2.00966548919678
91,0.129058808088303,0.047122161835432,0.726419985294342,3.7792205810546897,2.59532904624939,-0.717009663581848,1.87057626247406,-0.318284809589386,0.29836353659629805,0.221146494150162,-0.136997595429421,1.98896169662476
92,0.05693054199218799,-0.423490464687347,1.2947268486023,-6.73027801513672,3.45897531509399,-2.15400075912476,1.87181675434113,-0.319056242704391,0.2990149557590481,0.050800155848265,-0.223745331168175,1.96560180187225
93,-0.07243280857801401,-0.393857568502426,1.45976877212524,-7.69117832183838,-2.6208276748657204,-2.2174861431121804,1.87044954299927,-0.319206893444061,0.29853707551956205,0.211555808782578,-0.34946343302726696,1.9441504478454599
94,0.037275221198797004,-0.10296858102083199,1.25176203250885,-0.30365619063377397,-0.009490162134170999,-3.4003086090087904,1.8711949586868302,-0.321358174085617,0.29963019490242,0.120494805276394,-0.23675222694873801,1.9046792984008798
95,0.22790892422199202,-0.046877618879080006,0.9698293805122379,3.09423923492432,1.61162078380585,-3.20895457267761,1.8712100982666,-0.32144993543624895,0.300958752632141,0.116914846003056,-0.30249255895614596,1.87750172615051
96,0.142535820603371,-0.6430751085281371,1.04000651836395,2.18142747879028,-0.340621650218964,-4.38210773468018,1.8712857961654699,-0.321549028158188,0.302239179611206,0.114646598696709,-0.36019903421402,1.84453094005585
97,0.189197421073914,-0.17365363240242002,1.07899498939514,3.61750721931458,-1.80567348003387,-4.37619543075562,1.8712798357009899,-0.32397478818893394,0.30341178178787204,0.120882548391819,-0.180341318249702,1.79604578018188
98,0.301131725311279,-0.532118320465088,1.10785102844238,4.501136302948,-4.09488773345947,-4.83977746963501,1.87123239040375,-0.324955821037292,0.304755032062531,0.14902608096599598,-0.141979813575745,1.7458111047744798
99,0.401131212711334,-0.708993315696716,0.871485710144043,0.9818649291992191,-2.5303578376769997,-6.136620044708249,1.87092924118042,-0.325744420289993,0.30475741624832203,0.20218122005462602,-0.148825526237488,1.68956959247589
