,acc.x,acc.y,acc.z,gyro.x,gyro.y,gyro.z,stateEstimate.x,stateEstimate.y,stateEstimate.z,stabilizer.pitch,stabilizer.roll,stabilizer.yaw
0,0.35129928588867204,-0.543609619140625,1.0461838245391801,2.9572157859802206,-2.39642477035522,-0.34527137875556896,1.8619772195816002,0.4174729287624361,0.28912749886512795,0.38298788666725203,0.394631445407867,2.07119989395142
1,0.141068071126938,-0.135277017951012,1.04837024211884,3.7640016078948997,-0.45457527041435203,0.39884111285209706,1.86269021034241,0.41658496856689503,0.28911104798316994,0.340324580669403,0.45220246911048906,2.0768978595733603
2,0.066913783550263,-0.61607426404953,1.10992419719696,3.2861144542694105,-3.96365427970886,-0.5149517655372621,1.86330425739288,0.41571435332298295,0.289162039756775,0.32667621970176697,0.5006830692291261,2.07410955429077
3,0.18111108243465399,-0.321431815624237,0.9994830489158629,2.96470475196838,-1.8734564781188998,-0.126517444849014,1.8632402420043899,0.41482111811637895,0.28958344459533697,0.379446923732758,0.53680807352066,2.07050800323486
4,0.205696508288383,-0.032340407371521,1.06534242630005,1.69572257995605,-3.5828945636749303,-0.78555816411972,1.8631081581115703,0.41475722193718,0.28987690806388894,0.440126121044159,0.474460601806641,2.06109690666199
5,0.549819946289063,-0.40850681066513106,1.10301411151886,1.22202181816101,-3.37638735771179,-0.6963107585906979,1.86445152759552,0.41468298435211204,0.290226250886917,0.351682245731354,0.414483785629272,2.04940032958984
6,0.33732795715332003,-0.78454577922821,1.02328646183014,1.2947713136673,-4.44099617004395,-0.7483717203140259,1.86418771743774,0.414612025022507,0.29041746258735696,0.44889980554580705,0.366848438978195,2.04383182525635
7,0.15157906711101501,-0.224268525838852,1.05955696105957,1.97235834598541,-3.33512187004089,-0.8954120874404911,1.86470830440521,0.4123533666133879,0.290698051452637,0.470688045024872,0.551022529602051,2.0320055484771697
8,0.019834741950034998,-0.0837517157197,0.990007936954498,0.49037230014801003,-4.29914999008179,-1.8280000686645501,1.8644677400588998,0.4123514890670779,0.29119023680687,0.567300260066986,0.488768100738525,2.01917195320129
9,0.146208241581917,0.013324555009603998,1.0399512052536,1.171053647995,-3.10915613174438,-1.21090984344482,1.864954829216,0.41161984205246,0.287714958190918,0.5741567611694339,0.5021126270294191,2.0006163120269798
10,0.23998326063156103,0.00033418045495599996,0.9312289953231808,0.6543824672698969,-1.1803576946258503,-1.49777400493622,1.8647638559341397,0.41019356250762895,0.287834078073502,0.645252704620361,0.5849825739860529,1.98862445354462
11,0.053877666592597996,-0.010777357034385,1.10026478767395,0.143144533038139,-0.972811102867126,-1.59610724449158,1.8647150993347201,0.408727318048477,0.28793999552726696,0.678375661373138,0.651335835456848,1.9736338853836102
12,0.09381397068500501,-0.073843635618687,0.949413239955902,-1.9067492485046398,-1.73341834545136,-2.07246136665344,1.86592149734497,0.40796265006065396,0.28821247816085804,0.57682865858078,0.5974941849708559,1.9402903318405198
13,0.46393272280693104,-0.205299586057663,1.06395280361176,-1.91738784313202,0.20053093135356895,-1.6711905002594,1.86591565608978,0.40826341509819003,0.28741675615310697,0.5922982692718511,0.4699046015739439,1.9292410612106299
14,0.306854009628296,-0.421364694833756,0.980281233787537,-4.027148723602299,0.14029976725578303,-1.4543894529342698,1.8660778999328602,0.40550521016120894,0.28745099902153004,0.584570944309235,0.618812024593353,1.9057674407959
15,0.101357400417328,-0.278932273387909,1.0535918474197399,-3.0378086566925,0.341580718755722,-1.69757914543152,1.8669003248214702,0.4057320952415471,0.287822991609573,0.5040733814239501,0.451902747154236,1.88568770885468
16,0.317512392997742,-0.16271582245826702,0.998220682144165,-3.8859436511993395,-0.945704340934753,-2.2982952594757102,1.86692667007446,0.40622544288635204,0.289231806993484,0.522033393383026,0.288182318210602,1.87433469295502
17,0.103810615837574,-0.17859810590744,1.07513415813446,-1.65147113800049,0.156046628952026,-1.85946047306061,1.86707067489624,0.40410065650939897,0.28948286175727805,0.5361259579658509,0.40586495399475103,1.8462593555450402
18,0.193020895123482,-0.006316749379039001,0.9763423204422,1.01621663570404,-1.6028265953063998,-1.8268899917602501,1.8669635057449299,0.40423324704170205,0.289900809526443,0.5826165080070501,0.324394226074219,1.8354290723800701
19,0.020935721695423,-0.560807526111603,1.0252153873443601,1.2528163194656399,-1.01207113265991,-2.5786125659942596,1.86691677570343,0.40111136436462397,0.290019780397415,0.6271580457687379,0.56278258562088,1.8027632236480702
20,0.103966802358627,-0.436534911394119,1.02677750587463,2.62393021583557,-3.15074896812439,-2.86142349243164,1.86676466464996,0.401082873344421,0.290467262268066,0.6871424317359921,0.503697633743286,1.7841831445693999
21,0.07459486275911299,-0.129298001527786,0.9703924059867859,0.45994722843170205,-0.261478543281555,-3.02450132369995,1.8659259080886799,0.400596588850021,0.29082593321800204,0.801067888736725,0.482476592063904,1.77042531967163
22,0.06837411224842099,-0.054251976311207005,1.0910748243331898,-0.765596508979797,1.12477767467499,-3.7456989288330096,1.8666561841964702,0.398932278156281,0.291177183389664,0.7092493176460269,0.519730031490326,1.7209982872009297
23,0.076519913971424,-0.022993091493845,0.974699676036835,-4.2869377136230495,2.4509425163269,-2.9862756729126,1.8660458326339702,0.39863210916519204,0.294388055801392,0.752463042736053,0.420047700405121,1.70512425899506
24,0.028022885322571002,0.1274194419384,1.07709860801697,-5.22718667984009,3.8924951553344704,-3.6314151287078897,1.86693584918976,0.396461009979248,0.294947236776352,0.613178312778473,0.458771765232086,1.64415669441223
25,0.05853844806551901,-0.27043458819389304,0.927675366401672,-7.8118791580200195,3.03682327270508,-4.487122535705571,1.8672344684600801,0.395395845174789,0.29556059837341303,0.544799745082855,0.38686513900756797,1.59592866897583
26,0.21741491556167603,-0.18137733638286602,1.02693116664886,-6.3520817756652805,3.5733644962310804,-5.33732461929321,1.86754870414734,0.39529773592948897,0.29396358132362393,0.47836044430732705,0.230641812086105,1.54967927932739
27,0.14023819565773002,-0.6064860224723821,1.00162959098816,-6.962573528289799,1.17640221118927,-4.64108085632324,1.8677510023117099,0.39430233836173995,0.29445320367813105,0.437159925699234,0.158199951052666,1.50164198875427
28,0.245193436741829,-0.572005093097687,1.12038195133209,-7.759628772735599,0.85124409198761,-4.39078283309937,1.8672404289245599,0.39350950717926003,0.295012474060059,0.49457466602325395,0.07170481979847,1.46395742893219
29,0.032980132848024,-0.136606514453888,1.10367357730865,-2.3984203338623,-2.0163369178772,-4.89778804779053,1.8671177625656101,0.39156416058540294,0.29363849759101895,0.5344802737236021,0.139159366488457,1.41124153137207
30,0.021518362686038003,-0.036589987576007996,0.933696806430817,-1.42220962047577,-3.0085220336914102,-5.973577976226809,1.86700654029846,0.39014142751693703,0.294153183698654,0.573344171047211,0.164280146360397,1.35568594932556
31,0.05562125518918,0.013243463821709,0.991310834884644,0.24629420042038,0.37200593948364297,-3.6798965930938703,1.8669650554657,0.38863044977188105,0.294624149799347,0.588434994220734,0.20400232076644897,1.31091701984406
32,0.004632232710719,0.077849514782429,1.02999591827393,0.029060944914817997,-1.95019578933716,-4.77001619338989,1.86681067943573,0.38716533780098,0.29508537054061895,0.618546962738037,0.231925711035728,1.26513540744782
33,0.21186636388301802,-0.044646795839071,0.923464000225067,-2.20779323577881,-1.54151606559753,-5.0724816322326705,1.86663544178009,0.386613667011261,0.294893711805344,0.6490129828453061,0.154722943902016,1.21941244602203
34,0.274711459875107,-0.422554045915604,0.955114662647247,-4.203504562377931,2.3401722908019997,-4.11588478088379,1.86743021011353,0.386174231767654,0.295416206121445,0.5359507203102111,0.038663953542709004,1.17113363742828
35,0.42877185344696,-0.41500234603881797,1.08144736289978,-6.7051043510437,2.04866290092468,-5.06838321685791,1.86759102344513,0.383467048406601,0.295709699392319,0.496265143156052,0.128930419683456,1.10605454444885
36,0.24284917116165197,-0.47202038764953597,1.00253105163574,-6.27369594573975,1.9419882297515902,-4.87367916107178,1.8685111999511699,0.381586402654648,0.29621019959449796,0.372741639614105,0.113941811025143,1.0466623306274399
37,0.273529320955276,-0.34442040324211104,0.95410031080246,-8.20426845550537,1.8256726264953602,-4.71376514434814,1.8680431842804,0.382390588521957,0.296896457672119,0.403670966625214,-0.16358204185962696,1.01805663108826
38,0.070424973964691,-0.29931068420410195,1.08282065391541,-8.35947608947754,2.80543637275696,-4.59363174438477,1.8682761192321797,0.381454199552536,0.29738429188728305,0.35651001334190396,-0.26123538613319397,0.971344947814941
39,0.143413677811623,-0.20739085972309101,1.01076471805573,-6.329814910888669,0.711800396442413,-5.08484220504761,1.86838114261627,0.378915846347809,0.29750922322273304,0.34356510639190696,-0.18175800144672402,0.913501143455505
40,0.12193261086940801,-0.276182919740677,0.913727879524231,-3.1633040904998797,-0.820492148399353,-4.891924381256099,1.86838293075562,0.378439575433731,0.298024952411652,0.355901509523392,-0.281522184610367,0.8682096600532528
41,0.067109487950802,-0.09154845774173699,1.0020436048507702,-2.55784845352173,-0.695309579372406,-4.552252769470219,1.86825454235077,0.37635201215744,0.298370271921158,0.392043083906174,-0.205992892384529,0.8201550841331479
42,0.06994059681892402,-0.013506703078747,1.0350482463836699,-0.666439950466156,-2.6133627891540496,-4.2654747962951705,1.86948013305664,0.376473069190979,0.29831126332283003,0.295263737440109,-0.33628207445144703,0.782673299312592
43,0.040587715804577006,-0.13448014855384802,0.949339330196381,-1.0263466835022,-1.14602982997894,-3.75300574302673,1.86929726600647,0.37505269050598206,0.298692375421524,0.353421062231064,-0.310156226158142,0.7408636212348941
44,0.334789127111435,-0.333530753850937,0.962447643280029,1.07194769382477,-1.60555422306061,-4.644104957580571,1.8684388399124099,0.37343567609787004,0.299029350280762,0.47059845924377397,-0.25677269697189303,0.692172229290008
45,0.033652920275927,-0.29124677181243896,1.00633382797241,-0.146977320313454,-3.9317977428436297,-4.28301954269409,1.8674088716507,0.37259265780448897,0.299415290355682,0.603808581829071,-0.298135936260223,0.646204352378845
46,0.002145273145288,0.128337547183037,1.04010045528412,-1.9825919866561899,-2.04350471496582,-3.9796507358551003,1.86732494831085,0.37141227722167997,0.295975029468536,0.622743785381317,-0.30156335234642,0.603934705257416
47,0.14127448201179502,-0.28002116084098805,1.2710241079330402,-2.89434266090393,-0.743129909038544,-3.83720469474792,1.86884021759033,0.36960113048553495,0.29629832506179804,0.463207602500915,-0.25133430957794195,0.5692009925842291
48,0.30803570151329,-0.18520216643810297,1.03889143466949,-2.09895038604736,1.46820020675659,-4.1705322265625,1.86902678012848,0.36917814612388594,0.29687815904617304,0.417574673891068,-0.349380344152451,0.533048033714294
49,0.6059754490852359,0.11382607370615,1.05414760112762,-2.7129876613616903,3.40658140182495,-3.82936906814575,1.86943924427032,0.368022233247757,0.294577807188034,0.34003010392189004,-0.35531565546989397,0.49810537695884705
50,0.048729870468378005,-0.15197174251079598,0.9751072525978092,-3.2329502105712904,4.04407024383545,-3.8206381797790496,1.8704756498336799,0.36696115136146595,0.294961154460907,0.20884546637535104,-0.373343735933304,0.46630004048347495
51,0.07569768279790899,0.013281431049109,0.983542680740356,-2.01512122154236,0.7684969902038571,-3.9746034145355202,1.86908495426178,0.365367263555527,0.295370191335678,0.343579083681107,-0.374677449464798,0.411675304174423
52,0.034464955329895,-0.469934970140457,0.9998380541801449,-3.78159236907959,-0.10535676032304801,-3.8927769660949703,1.8683369159698502,0.365519851446152,0.29429349303245506,0.42360901832580605,-0.541343867778778,0.36699983477592496
53,0.00353937363252,-0.290728658437729,1.04893386363983,-0.07526370137929901,-1.28022909164429,-4.437384128570559,1.8674532175064098,0.36395356059074396,0.29455828666687,0.5195477008819579,-0.504583656787872,0.315605700016022
54,0.301819175481796,-0.12785105407238,0.987631857395172,0.636000454425812,-1.22553086280823,-3.38791298866272,1.8673628568649299,0.361654996871948,0.294787347316742,0.529494404792785,-0.367255210876465,0.280620992183685
55,0.25994926691055303,-0.20379653573036202,0.9307050704956059,2.11372470855713,1.68008756637573,-3.2891411781311,1.86738657951355,0.36088278889656106,0.295116811990738,0.5063235163688661,-0.38060572743415794,0.252526730298996
56,0.075654692947865,0.036802768707275,1.02545082569122,1.0171653032302899,2.89002418518066,-3.25895500183105,1.86754763126373,0.359486013650894,0.291624426841736,0.453102231025696,-0.320960640907288,0.224840581417084
57,0.051184467971325,0.08391194790601701,1.00667905807495,-0.174099519848824,4.82503795623779,-3.57268619537354,1.8677883148193402,0.35969388484954795,0.29182600975036604,0.37632748484611495,-0.441600531339645,0.19500409066677102
58,0.044146321713925005,-0.6252513527870179,0.973358690738678,-0.601134121417999,6.9273190498352095,-4.14483165740967,1.8682256937026998,0.359900146722794,0.29200467467308006,0.259983420372009,-0.547119975090027,0.167458891868591
59,0.132865861058235,-0.770249307155609,0.9803562760353092,0.782131969928741,4.79225873947144,-3.1185688972473105,1.8685296773910502,0.356992185115814,0.291317224502563,0.17475372552871696,-0.338692247867584,0.138394623994827
60,0.079556375741959,-0.060960985720158,1.07132828235626,-0.7655483484268192,4.58378028869629,-2.8735365867614706,1.86881566047668,0.35795211791992204,0.291589885950088,0.100350335240364,-0.541217029094696,0.11456226557493199
61,-0.068635568022728,0.021380078047514,1.00754189491272,-0.2854231595993039,3.4801177978515603,-2.7460775375366198,1.8691226243972798,0.35735321044921897,0.291724681854248,0.036706749349833,-0.56060266494751,0.092288725078106
62,0.260573148727417,-0.06284863501787201,0.9716295003890991,4.274602890014649,-3.04130005836487,-3.70065069198608,1.86888074874878,0.35494649410247797,0.29183357954025296,0.08251905441284199,-0.374715775251389,0.054309640079737
63,0.26425674557685896,-0.16299289464950598,1.0228632688522301,4.46653270721436,-3.7060761451721205,-2.3572509288787797,1.86871612071991,0.353224188089371,0.29190367460250893,0.12963981926441198,-0.256666451692581,0.028700517490506
64,0.22930936515331302,-0.21096262335777302,1.0559048652648901,5.654101848602299,-4.671430587768559,-1.9974250793456998,1.86835300922394,0.35273593664169295,0.29215645790100103,0.20880091190338101,-0.27281242609024,-0.001261543016881
65,0.518121361732483,-0.033815983682871,0.987487256526947,5.52655124664307,-5.7817521095275906,-2.33597469329834,1.86794650554657,0.35228991508483903,0.29242753982543895,0.29123356938362105,-0.28660708665847806,-0.033693484961987
66,0.425826281309128,-0.10665057599544502,1.04283773899078,4.08947992324829,-1.21973729133606,-1.7667671442031898,1.8694258928298997,0.351608514785767,0.291792243719101,0.14202392101287803,-0.20187520980835003,-0.019998012110591
67,0.06313617527484901,0.132425978779793,0.970900475978851,5.89746952056885,-1.87813270092011,-1.82022202014923,1.8694877624511699,0.350660979747772,0.291933923959732,0.138195544481277,-0.143489301204681,-0.03174105286598201
68,0.171694532036781,-0.16477911174297302,0.9253913164138791,1.55053126811981,-0.252712190151215,-2.7639353275299103,1.86948382854462,0.349739253520966,0.292033344507217,0.142825111746788,-0.124530032277107,-0.056324977427720996
69,0.198921397328377,-0.23817753791809101,1.0861024856567398,1.4031765460968,0.41586723923683205,-1.6400945186615,1.8680272102356001,0.349256187677383,0.29253613948821994,0.275489777326584,-0.20262590050697302,-0.099923454225063
70,0.190917983651161,-0.20708084106445301,1.09117674827576,0.940967082977295,0.43705356121063205,-1.40688252449036,1.8688850402831998,0.348670840263367,0.292738288640976,0.17075377702713002,-0.19676458835601798,-0.100989580154419
71,0.39288446307182295,-0.143090054392815,1.01458561420441,2.6363515853881805,2.8628170490264906,-0.40745556354522705,1.8692519664764398,0.34658393263816806,0.292835265398026,0.103657498955727,-0.025275072082877,-0.091561175882816
72,0.293536484241486,-0.7300302386283871,1.06245577335358,3.84581232070923,1.29588305950165,-1.09853768348694,1.8693624734878502,0.345689505338669,0.29171204566955605,0.079972617328167,0.00266937026754,-0.102817334234715
73,0.08515185862779599,-0.266357243061066,1.07126557826996,3.7312569618225098,0.15977182984352098,-0.5100387930870061,1.8694567680358898,0.34537672996521,0.292013049125671,0.06375163793563901,-0.03148503229022,-0.11386255919933301
74,0.201048851013184,0.072264567017555,1.0062649250030502,3.41937041282654,0.195130109786987,-0.9593150615692142,1.8686913251876798,0.34433877468109103,0.292296141386032,0.14005799591541299,0.002375787589699,-0.132403075695038
75,0.536137700080872,-0.18248854577541299,0.940670073032379,3.3959076404571498,-2.44969940185547,-0.28842332959175104,1.86865854263306,0.343418002128601,0.29301854968071,0.150932550430298,0.029552839696407002,-0.13546466827392598
76,0.288655132055283,-0.094732493162155,1.09623670578003,1.70183289051056,-2.6898353099823,-0.40643164515495295,1.8693443536758403,0.342024654150009,0.293254286050797,0.09887894988060002,0.11284039914608,-0.12924337387085
77,0.500986814498901,-0.23907123506069197,1.04461848735809,3.09953117370605,-0.7665452361106869,-0.51105409860611,1.8692485094070401,0.341767191886902,0.293692648410797,0.11855628341436399,0.050515752285719,-0.144440412521362
78,0.44641521573066706,-0.25923234224319497,0.935302734375,1.07009088993073,-1.97155916690826,-1.22155141830444,1.8692514896392802,0.34157472848892195,0.29412877559661893,0.124650970101356,-0.014024102129042,-0.16310104727745098
79,0.22819085419178,-0.194537311792374,1.0671421289443999,2.02378749847412,1.0930815935134899,-0.8304879665374759,1.8707792758941697,0.34024968743324296,0.29272800683975203,-0.023578708991407998,0.079860337078571,-0.16115519404411302
80,0.19778728485107397,0.0022887475788589996,1.01208019256592,2.02925634384155,0.011786288581788998,-1.05564093589783,1.8701385259628303,0.339401453733444,0.29307231307029696,0.042089059948920995,0.08450088649988201,-0.17392300069332098
81,0.20373304188251504,-0.324285477399826,1.00695776939392,0.5238583683967589,0.30437639355659496,-0.903763830661774,1.8702247142791701,0.33735743165016197,0.293254107236862,0.037964809685946,0.23533277213573497,-0.169552400708199
82,0.396661967039108,-0.291897505521774,1.02116203308105,2.74561595916748,-0.181314364075661,-1.84689128398895,1.8702392578125,0.33652684092521695,0.2918681204319,0.045646090060473,0.23953968286514302,-0.190229475498199
83,0.485664010047913,-0.007711492944508999,1.08862280845642,2.77527403831482,-3.9002678394317596,-2.3744289875030495,1.87002527713776,0.336196839809418,0.292248368263245,0.096437491476536,0.18822976946830802,-0.22181841731071497
84,0.6939908266067509,-0.29755547642707797,1.03329181671143,-0.178264006972313,-1.91052150726318,-1.39205253124237,1.8691710233688401,0.335487514734268,0.292633771896362,0.19869868457317397,0.161613702774048,-0.24089622497558602
85,0.496842294931412,-0.45049422979354903,1.0148994922637902,-1.29182362556458,-2.2261700630187997,-1.59253549575806,1.87048649787903,0.334179788827896,0.290993124246597,0.08750932663679101,0.19753558933734902,-0.254189968109131
86,0.043292399495839996,-0.537310004234314,1.0773401260376,-1.1404128074646,-3.8208243846893297,-2.8307301998138397,1.87027728557587,0.33412891626358004,0.29137977957725497,0.142375439405441,0.085579745471478,-0.29110929369926397
87,-0.011327307671308996,-0.046888448297977996,1.05904459953308,-0.979582786560059,-1.0232218503952,-1.9861027002334601,1.8701376914978,0.3322245180606839,0.29162368178367604,0.18519014120101898,0.19707980751991297,-0.29984712600708
88,0.280168384313583,0.074989199638367,1.05925488471985,-0.50523567199707,-3.43239164352417,-2.55275559425354,1.8699554204940803,0.33154624700546304,0.292044162750244,0.22812353074550604,0.16013681888580303,-0.32822233438491805
89,0.20237177610397303,-0.246111199259758,0.949383318424225,-0.100695930421352,0.46508753299713107,-2.2591376304626496,1.86983644962311,0.33079579472541804,0.292768180370331,0.24700270593166299,0.138328373432159,-0.35620439052581804
90,0.11950118094682699,-0.46506109833717396,1.07131636142731,0.975946545600891,0.590932071208954,-2.5502917766571,1.86978256702423,0.329995721578598,0.293177217245102,0.24889376759529103,0.134454354643822,-0.38325735926628096
91,0.14707541465759302,-0.12550562620163,1.0652277469634999,0.61730432510376,1.3167257308959999,-2.18957543373108,1.8697503805160502,0.329860806465149,0.29371243715286305,0.24165776371955897,0.055317770689725994,-0.412106364965439
92,0.5123332738876339,-0.38401937484741205,1.04420459270477,1.49408841133118,1.63722014427185,-2.6636598110198997,1.86981010437012,0.328288733959198,0.29762834310531605,0.21748870611190804,0.140344753861427,-0.429489493370056
93,0.14046780765056602,-0.26552900671958896,0.966500282287598,1.9402577877044698,2.43266415596008,-1.52102172374725,1.86986362934113,0.326779633760452,0.29826223850250205,0.19697754085063898,0.223219767212868,-0.44418215751648
94,0.027827918529511,-0.179302915930748,1.01239514350891,1.5838515758514398,2.3939757347106903,-2.31352162361145,1.86924242973328,0.327281802892685,0.29911759495735196,0.231044694781303,0.091809175908566,-0.472805052995682
95,0.089719571173191,-0.0234997253865,1.03776466846466,0.773878276348114,1.28164863586426,-1.9606040716171298,1.8692206144332901,0.325737118721008,0.301556050777435,0.218106523156166,0.173303961753845,-0.48981696367263794
96,0.191218689084053,-0.28997784852981606,1.0609622001648,0.957098841667175,0.438862025737762,-2.11522269248962,1.8699047565460198,0.32488802075386,0.30245301127433805,0.142834097146988,0.16496247053146398,-0.513546586036682
97,0.22337125241756398,-0.46709719300270097,0.98077255487442,-0.113140888512135,0.825598776340485,-1.6128960847854599,1.87066519260407,0.324007749557495,0.303361743688583,0.06574218720197701,0.158738061785698,-0.535784184932709
98,0.155127927660942,-0.46683597564697293,0.99274343252182,-0.547715187072754,-1.2809867858886699,-2.11328792572021,1.8705208301544198,0.32266971468925504,0.30420735478401195,0.10218907892703999,0.20755335688591,-0.5523356795310971
99,0.047496549785136996,-0.5941325426101679,0.9766007661819459,0.461998343467712,-2.91031551361084,-2.35788297653198,1.87035608291626,0.32191413640975897,0.303618431091309,0.148630186915398,0.202102571725845,-0.5727760791778559
