number,acc.x,acc.y,acc.z,gyro.x,gyro.y,gyro.z,stateEstimate.x,stateEstimate.y,stateEstimate.z,stabilizer.roll,stabilizer.pitch,stabilizer.yaw
0,0.113537944853306,-0.700893223285675,1.06193101406097,-6.18718433380127,-10.4770545959473,1.03450751304626,1.83942461013794,-0.738452672958374,0.312069445848465,-1.53252947330475,1.25066840648651,-2.12088394165039
1,0.305592030286789,0.032494079321623,0.8163822889328,-0.119820967316628,-9.05837440490723,0.157587066292763,1.83837676048279,-0.740152418613434,0.312518030405045,-1.49532878398895,1.37167644500732,-2.14560484886169
2,0.379534035921097,-0.501615166664124,0.961636483669281,0.060534585267305,-5.44969701766968,0.878018081188202,1.83865964412689,-0.739902913570404,0.312920123338699,-1.57330930233002,1.43546390533447,-2.10729479789734
3,0.182481646537781,-0.293949961662292,1.03906095027924,0.952698886394501,-2.019211769104,0.4491066634655,1.83809173107147,-0.741638541221619,0.313228487968445,-1.47678852081299,1.44864284992218,-2.12099671363831
4,0.316857397556305,-0.044339705258608,0.967201471328735,0.328257530927658,-1.64353060722351,-0.081455491483212,1.83819174766541,-0.74229097366333,0.316386222839356,-1.46332681179047,1.44144809246063,-2.10511898994446
5,0.233219414949417,-0.083705075085163,1.13570475578308,-3.57967972755432,-0.402277648448944,-1.34127366542816,1.83782005310059,-0.742111504077911,0.316820919513702,-1.53543770313263,1.48174238204956,-2.08991575241089
6,0.386880815029144,-0.005807462148368,0.889968574047089,1.04123365879059,7.47259616851807,0.571743845939636,1.83862149715424,-0.742409229278564,0.317358464002609,-1.53912806510925,1.40977466106415,-2.06122374534607
7,0.175339937210083,0.082853987812996,0.758704900741577,0.207685485482216,3.73179721832275,-1.96683692932129,1.83670449256897,-0.742682218551636,0.317439287900925,-1.60356903076172,1.47731196880341,-2.08857321739197
8,-0.016034416854382,0.116160027682781,0.887766718864441,-4.1819338798523,0.013034720905125,0.283655762672424,1.83800160884857,-0.741668939590454,0.317751407623291,-1.69660568237305,1.4195955991745,-2.02286720275879
9,0.050387464463711,0.039252888411284,0.952243626117706,-2.88979244232178,-0.555684208869934,-0.310914576053619,1.83577299118042,-0.745658814907074,0.317958623170853,-1.485675573349,1.38367879390717,-2.13970398902893
10,0.030310928821564,-0.010471525602043,0.751430749893189,2.16424512863159,1.90172910690308,0.611967325210571,1.83467876911163,-0.746740877628326,0.317944258451462,-1.48388063907623,1.41327428817749,-2.16396903991699
11,0.341975659132004,-0.057622775435448,0.785669565200806,1.18490695953369,2.02201890945435,0.985213696956634,1.83355915546417,-0.747834384441376,0.317838221788406,-1.44783270359039,1.41642212867737,-2.17928171157837
12,0.089588016271591,-0.159794881939888,1.02070248126984,0.340421974658966,2.11540961265564,1.68162441253662,1.83343303203583,-0.747609674930573,0.317570388317108,-1.49451220035553,1.41408324241638,-2.1375036239624
13,0.330681711435318,-0.458989351987839,0.872339844703674,0.28375706076622,0.410571336746216,-0.553845942020416,1.8296240568161,-0.747500002384186,0.317079722881317,-1.62508189678192,1.61537778377533,-2.18290495872498
14,0.2282724827528,-0.195115551352501,0.61062616109848,2.51998281478882,2.17614960670471,1.99737143516541,1.83138310909271,-0.748444974422455,0.315725088119507,-1.52095425128937,1.42453837394714,-2.13047003746033
15,0.076236434280872,-0.206743583083153,0.815792500972748,-1.71874678134918,5.17666912078857,2.67660331726074,1.82940590381622,-0.749587655067444,0.314943730831146,-1.49710071086884,1.43743181228638,-2.15435075759888
16,0.148939162492752,-0.302768588066101,0.97832441329956,-1.29646623134613,7.54393863677979,3.10298418998718,1.82857930660248,-0.749428272247314,0.313966363668442,-1.56393265724182,1.41291201114655,-2.11743593215942
17,0.271267354488373,-0.009240210056305,0.991424381732941,0.503951609134674,7.24136686325073,3.18794417381287,1.82301604747772,-0.751112163066864,0.309621065855026,-1.59722876548767,1.58035576343536,-2.2295868396759
18,0.222327470779419,-0.341544091701508,1.04654026031494,2.34672117233276,8.71669578552246,3.65058612823486,1.8258228302002,-0.749938309192658,0.308643132448196,-1.60684978961945,1.33416438102722,-2.07587242126465
19,0.23175573348999,-0.248050764203072,1.00919830799103,4.06189870834351,11.5398616790771,5.50266075134277,1.82543671131134,-0.750086605548858,0.307499200105667,-1.57642185688019,1.21100807189941,-2.01865577697754
20,0.179464310407639,-0.453353255987167,1.29356563091278,0.27099421620369,14.3524675369263,5.6732816696167,1.82247817516327,-0.750119984149933,0.30742347240448,-1.60056066513062,1.2217903137207,-2.00625109672546
21,0.069125182926655,-0.735931158065796,1.23853039741516,9.69983100891113,11.1973028182983,4.79908990859985,1.82478320598602,-0.749780714511871,0.306730061769485,-1.50412571430206,0.916605651378632,-1.86962890625
22,0.467924892902374,-0.330419331789017,1.00194144248962,10.8246574401855,11.3628644943237,4.74135780334473,1.82040810585022,-0.751897394657135,0.305997252464294,-1.3405430316925,0.936806499958038,-1.94469439983368
23,0.227413058280945,-0.378222703933716,0.997276425361633,13.1560659408569,12.3268718719482,6.30420112609863,1.81860876083374,-0.7521852850914,0.305365443229675,-1.22664594650269,0.864540696144104,-1.91424667835236
24,0.225243881344795,-0.254093796014786,1.14743781089783,13.5924768447876,10.4068021774292,6.75246238708496,1.81798529624939,-0.753665447235107,0.311602622270584,-0.958505570888519,0.6492840051651,-1.86344814300537
25,0.095074348151684,-0.050550021231175,1.11419880390167,9.93762874603272,9.76091003417969,7.4013843536377,1.8177090883255,-0.753194570541382,0.311559796333313,-0.878930866718292,0.525815963745117,-1.76298248767853
26,0.063388429582119,-0.300811886787415,0.996563732624054,8.7312593460083,10.6439723968506,6.95697402954102,1.81392061710358,-0.754601418972015,0.31146901845932,-0.755506873130798,0.550309836864471,-1.77632796764374
27,0.387550503015518,-0.140266567468643,1.02290654182434,4.13344430923462,6.50404644012451,7.22262525558472,1.81265473365784,-0.753089785575867,0.313061356544495,-0.829165816307068,0.517332553863525,-1.67879891395569
28,0.671386480331421,0.139991372823715,0.968131422996521,4.03884506225586,10.5255899429321,6.28943204879761,1.81235754489899,-0.75203812122345,0.313249588012695,-0.866751670837402,0.410197228193283,-1.57078909873962
29,0.516381680965424,-0.015345611609519,0.894022285938263,-0.95959210395813,6.41353893280029,6.57517576217651,1.81010508537292,-0.752251446247101,0.313330143690109,-0.853479266166687,0.383092522621155,-1.53340518474579
30,0.529721260070801,-0.257955729961395,0.912009179592133,-0.776444375514984,6.0361590385437,6.39696025848389,1.81025159358978,-0.75185489654541,0.314709812402725,-0.857024312019348,0.223993957042694,-1.43914413452148
31,0.449553072452545,0.07558898627758,1.148397564888,3.39180326461792,8.35900497436523,6.68406105041504,1.80928254127502,-0.752070844173431,0.314819723367691,-0.819729208946228,0.1289102435112,-1.3708508014679
32,0.153009355068207,-0.184265375137329,1.06638777256012,3.37235808372498,8.23803615570068,5.47782182693481,1.80625593662262,-0.752035081386566,0.314863979816437,-0.822563052177429,0.164845064282417,-1.34559571743011
33,0.089853748679161,-0.155083492398262,1.00204753875732,7.84271001815796,9.16592597961426,5.23828887939453,1.80634140968323,-0.752265930175781,0.315474689006805,-0.711274445056915,-0.033830333501101,-1.2682136297226
34,0.347411692142487,-0.154470786452293,1.04329359531403,8.8472900390625,7.64959335327148,5.56858015060425,1.80438768863678,-0.752286016941071,0.315703958272934,-0.63798314332962,-0.07218549400568,-1.23132765293121
35,0.119619332253933,-0.135315701365471,0.993643999099731,9.81433200836182,6.78516054153442,5.77207517623901,1.80316805839539,-0.75286602973938,0.315977096557617,-0.481560379266739,-0.168331980705261,-1.17720091342926
36,0.398984998464584,-0.432082563638687,1.01738846302032,8.19869136810303,5.99971008300781,5.08944177627564,1.80218839645386,-0.751874923706055,0.316289126873016,-0.483581691980362,-0.250525265932083,-1.11605310440063
37,0.170981958508492,-0.306089639663696,1.01337003707886,6.51286506652832,5.11761236190796,5.59812116622925,1.79885232448578,-0.752458333969116,0.319489806890488,-0.363721162080765,-0.170568645000458,-1.09712886810303
38,-0.004296791739762,-0.205171510577202,1.04234397411346,6.32891941070557,4.86871290206909,5.95444631576538,1.79948127269745,-0.752538502216339,0.320130616426468,-0.256695121526718,-0.386087864637375,-1.00945746898651
39,0.086686238646507,-0.51285582780838,0.994161128997803,4.71580123901367,2.0551061630249,5.05574369430542,1.79724085330963,-0.752890944480896,0.320544511079788,-0.16619747877121,-0.343578785657883,-0.962148547172546
40,0.082293532788754,-0.587656319141388,0.993637561798096,3.66699647903442,5.05769157409668,4.23519468307495,1.7965579032898,-0.751758217811585,0.32182314991951,-0.249141708016396,-0.460912078619003,-0.92497044801712
41,0.10170067101717,0.010808788239956,0.863113403320313,0.473493278026581,3.86441898345947,4.83080863952637,1.79690062999725,-0.751616775989533,0.32245871424675,-0.209392443299294,-0.652259290218353,-0.866796791553497
42,-0.062758393585682,-0.081520460546017,0.993958830833435,1.94289147853851,6.35115385055542,6.38953161239624,1.79585289955139,-0.751484453678131,0.322906970977783,-0.203799292445183,-0.697362720966339,-0.817852914333344
43,-0.010215451009572,-0.166917458176613,1.04509460926056,-0.073208637535572,1.93262195587158,3.31466245651245,1.7936806678772,-0.751502752304077,0.323505848646164,-0.178210958838463,-0.621452033519745,-0.770067512989044
44,0.06019151583314,-0.056365061551333,0.912001669406891,0.074576810002327,-0.436443120241165,3.22553992271423,1.79227948188782,-0.7514768242836,0.323940873146057,-0.165410861372948,-0.597011625766754,-0.733781456947327
45,0.024975826963782,-0.05211790278554,0.896596372127533,1.28322958946228,-0.10778970271349,2.41658091545105,1.79069364070892,-0.751421749591827,0.324306219816208,-0.150548696517944,-0.541648507118225,-0.701819002628326
46,0.045933265239,-0.059559509158135,0.935254693031311,1.45413327217102,-1.36715340614319,1.79132306575775,1.79057610034943,-0.751466631889343,0.32472836971283,-0.128963261842728,-0.631716191768646,-0.678327083587647
47,0.149142071604729,-0.098770380020142,0.978687107563019,3.26890635490417,-0.385947108268738,1.70350325107574,1.78987669944763,-0.751542687416077,0.323363810777664,-0.087425999343395,-0.651528894901276,-0.657423436641693
48,0.096788994967938,-0.188195124268532,0.976862251758575,4.52537298202515,-0.307161837816238,1.0492867231369,1.78785455226898,-0.751570999622345,0.323417872190475,-0.015795860439539,-0.522845506668091,-0.622405588626862
49,0.103765204548836,-0.064068861305714,0.888575196266174,5.26490116119385,-0.198511376976967,0.756821811199188,1.78776872158051,-0.751857995986939,0.32362887263298,0.059032052755356,-0.629936993122101,-0.612351179122925
50,0.123637221753597,0.032311130315065,1.01503431797028,1.4693021774292,-0.531694054603577,0.383367538452148,1.78714835643768,-0.752103745937347,0.324156999588013,0.129770115017891,-0.663067102432251,-0.598693132400513
51,0.089457608759403,0.014540752395988,0.918718755245209,0.70035046339035,1.9663999080658,-0.004856971092522,1.7847193479538,-0.751470804214478,0.324134796857834,0.084688022732735,-0.544631719589233,-0.604183495044708
52,0.05226194486022,-0.155219912528992,0.928919076919556,-0.74227511882782,1.77778649330139,-0.530062615871429,1.78345084190369,-0.751400947570801,0.324090957641602,0.089869692921639,-0.535796642303467,-0.598034083843231
53,0.080245539546013,0.056985124945641,0.981488466262817,-1.87084674835205,2.80413317680359,-0.138789132237434,1.78308701515198,-0.751570403575897,0.325096845626831,0.074510186910629,-0.676946043968201,-0.624043464660645
54,0.637209057807922,-0.157593324780464,0.92365425825119,-2.30195355415344,2.0261812210083,-0.527913808822632,1.78174471855164,-0.751391589641571,0.325016766786575,0.053956061601639,-0.647937774658203,-0.620202243328095
55,0.263872563838959,-0.114777497947216,0.944372832775116,-0.074053585529327,-0.73964911699295,0.343616127967834,1.78074491024017,-0.751030266284943,0.32499960064888,-0.06256277859211,-0.776213645935059,-0.680782914161682
56,0.109362222254276,0.037577100098133,0.956700325012207,-0.442408531904221,-0.702359676361084,0.336158394813538,1.78099977970123,-0.751615762710571,0.324915021657944,0.02190418727696,-0.85339081287384,-0.657432556152344
57,0.088870659470558,-0.187386825680733,0.95559573173523,2.18580031394958,-3.76288723945618,-0.313045918941498,1.77958035469055,-0.751367330551147,0.328536570072174,0.034718800336123,-0.745955169200897,-0.635400831699371
58,0.170099914073944,-0.248601794242859,0.954345107078552,2.66134929656982,-6.98249673843384,0.04991116002202,1.77824890613556,-0.751180171966553,0.328478157520294,0.072771959006786,-0.617200553417206,-0.606562197208405
59,0.127887651324272,-0.101186744868755,0.968819200992584,3.18329405784607,-5.76293182373047,0.289582759141922,1.7778137922287,-0.751459658145904,0.328477740287781,0.12798798084259,-0.620592355728149,-0.609547793865204
60,0.093640476465225,-0.231801643967628,0.98332130908966,3.35587954521179,-5.53953504562378,-1.4722216129303,1.77727103233337,-0.751699030399323,0.330983817577362,0.184920445084572,-0.594520270824432,-0.615430057048798
61,-0.036781664937735,-0.107091896235943,0.975771546363831,1.98779165744782,-6.86655330657959,0.002397639444098,1.7764208316803,-0.751765370368958,0.331012010574341,0.23136942088604,-0.515081465244293,-0.611784756183624
62,0.085728034377098,-0.019261933863163,0.950046420097351,0.48937126994133,-2.6588397026062,-0.672046780586243,1.77643144130707,-0.752423882484436,0.3310486972332,0.328808903694153,-0.50604635477066,-0.591934263706207
63,0.259492218494415,-0.025408305227757,0.997735679149628,-3.32054209709167,-3.99180936813354,-2.5721492767334,1.77496480941772,-0.752161026000977,0.331667214632034,0.308181762695312,-0.361095011234283,-0.582757294178009
64,0.23294435441494,-0.311005681753159,0.935533106327057,-4.42756223678589,-2.66482424736023,-1.64336323738098,1.77369999885559,-0.752017498016357,0.331670731306076,0.230662524700165,-0.32243600487709,-0.617951095104218
65,0.180644616484642,-0.326029449701309,0.982394635677338,-6.89328765869141,-1.23565423488617,-2.22066020965576,1.77238416671753,-0.751788079738617,0.331633150577545,0.137111812829971,-0.270078033208847,-0.650838315486908
66,0.111702837049961,0.044330671429634,0.986100435256958,-6.53515911102295,-2.86776423454285,-2.30632042884827,1.77142369747162,-0.751747250556946,0.331664502620697,0.02037850767374,-0.323146164417267,-0.713217794895172
67,0.31677719950676,0.125540494918823,0.689475655555725,-4.01620292663574,-0.88761031627655,-2.26771879196167,1.77167594432831,-0.752724766731262,0.329626500606537,0.067018628120422,-0.396127909421921,-0.721524655818939
68,0.132474273443222,-0.073652319610119,0.835410952568054,-4.47155809402466,-3.08071160316467,-1.76211488246918,1.77046978473663,-0.752448201179504,0.329241037368774,-0.019933329895139,-0.344469010829926,-0.746799230575562
69,0.180220082402229,-0.018203116953373,1.00545418262482,-3.31543302536011,-6.33464622497559,-2.05744671821594,1.77028572559357,-0.753232777118683,0.328673988580704,0.05215210840106,-0.286752969026566,-0.717561900615692
70,0.141534894704819,-0.033847495913506,0.98281341791153,-2.72603273391724,-3.50116968154907,-1.66585469245911,1.76947259902954,-0.753268420696258,0.321637541055679,-0.024534242227674,-0.296289175748825,-0.76993316411972
71,0.019120210781694,-0.077988766133785,0.93450403213501,-2.64354181289673,-4.91962003707886,-1.35500371456146,1.7686687707901,-0.753254592418671,0.320656448602676,-0.088842436671257,-0.269534409046173,-0.807568073272705
72,0.033011756837368,-0.277551352977753,1.01264464855194,-3.07779359817505,-6.85308218002319,-0.756918549537659,1.76841747760773,-0.753805279731751,0.319645673036575,-0.074764043092728,-0.250869512557983,-0.815908968448639
73,0.035082884132862,-0.520129799842835,0.994146823883056,-2.00498723983765,-4.87499570846558,-0.89566570520401,1.7680811882019,-0.754321098327637,0.316304236650467,-0.056262191385031,-0.200965449213982,-0.816413879394531
74,0.181113988161087,-0.332887262105942,1.00472557544708,-3.15943074226379,-4.03332376480103,0.236976265907288,1.76738750934601,-0.754690766334534,0.315088093280792,-0.03772110119462,-0.096993260085583,-0.795970320701599
75,0.008814906701446,-0.136833265423775,0.9326331615448,-0.226000353693962,-3.71890211105347,2.46104049682617,1.76539504528046,-0.754052877426147,0.313754022121429,-0.096534602344036,0.129858493804932,-0.746902167797089
76,0.065769776701927,-0.132274195551872,0.993879795074463,-2.88442230224609,-3.56319546699524,-0.741949915885925,1.76505994796753,-0.754762887954712,0.311380058526993,-0.068097971379757,0.112107306718826,-0.740350604057312
77,0.200831398367882,-0.259894847869873,1.03855586051941,-1.5436497926712,0.115465320646763,1.93415081501007,1.76446771621704,-0.754850566387177,0.310101687908173,-0.124524585902691,0.069488547742367,-0.764363467693329
78,0.095664165914059,-0.312665581703186,1.06400847434998,-1.79765725135803,1.73816013336182,0.998889684677124,1.76436245441437,-0.755586624145508,0.308856904506683,-0.105632461607456,-0.022775055840612,-0.758809030056
79,0.305091172456741,-0.395112663507462,1.09018993377686,-0.525738596916199,2.82572031021118,2.28565526008606,1.76505887508392,-0.758315026760101,0.307612180709839,0.145343169569969,-0.122589573264122,-0.711641073226929
80,0.207018077373505,-0.236548274755478,1.0423276424408,1.2519451379776,1.44232380390167,2.91227173805237,1.76478433609009,-0.758603274822235,0.309760987758636,0.102414697408676,-0.225984960794449,-0.714074194431305
81,0.208928421139717,-0.225602999329567,1.0854457616806,-1.43705809116364,-0.615544497966766,3.29005146026611,1.76379799842834,-0.759087800979614,0.308822244405746,0.131911844015121,-0.139464899897575,-0.657382071018219
82,0.614300131797791,-0.6920245885849,1.09518909454346,-3.48673462867737,-3.78955507278442,3.47541069984436,1.76291000843048,-0.759014248847961,0.308034121990204,0.055985998362303,-0.105923980474472,-0.625167727470398
83,0.221254289150238,-0.202690586447716,1.00671398639679,-4.71111679077148,-7.35459232330322,2.69879627227783,1.76181018352509,-0.758672297000885,0.306498467922211,-0.061081416904926,-0.007820656523108,-0.590679407119751
84,0.251319497823715,-0.08007625490427,1.05819308757782,-6.0487174987793,-8.15956974029541,3.39101648330688,1.76127827167511,-0.759107291698456,0.305743545293808,-0.112685017287731,0.041708920150995,-0.568164587020874
85,0.14555250108242,-0.112866073846817,1.07229864597321,-3.83515739440918,-9.07865047454834,3.93287110328674,1.76049792766571,-0.758887708187103,0.305050194263458,-0.225661039352417,0.123331159353256,-0.537179470062256
86,0.672493517398834,-0.100371241569519,0.996020555496216,-2.92988252639771,-8.4263858795166,3.58572936058044,1.75990211963654,-0.75928807258606,0.303935289382935,-0.258917272090912,0.205487236380577,-0.502716302871704
87,0.474258244037628,-0.150665029883385,1.1210550069809,0.411221385002136,-5.89621591567993,3.05564212799072,1.75940263271332,-0.759967803955078,0.303300857543945,-0.238200455904007,0.267959952354431,-0.466803908348084
88,0.574447333812714,-0.06163202226162,1.04368305206299,3.35685133934021,-2.23117280006409,4.35735702514648,1.75843834877014,-0.759962916374206,0.30269655585289,-0.252783566713333,0.357833951711655,-0.425049692392349
89,0.117401152849197,-0.02249439060688,1.04168808460236,3.62555360794067,-0.927906334400177,4.61330699920654,1.75768423080444,-0.760847985744476,0.302150845527649,-0.156404390931129,0.393193483352661,-0.378850430250168
90,0.23189215362072,0.11472175270319,1.10523760318756,-0.820350825786591,-3.27296614646912,1.36071467399597,1.75743389129639,-0.761224806308746,0.302709102630615,-0.131289780139923,0.335466682910919,-0.339888364076614
91,0.199120506644249,0.09619028121233,0.984765291213989,3.30638885498047,2.16346168518066,5.32200956344605,1.75611209869385,-0.761129200458527,0.30230250954628,-0.150570064783096,0.435657531023026,-0.298019915819168
92,0.275907397270203,-0.05427709966898,1.04364776611328,-1.13296949863434,-5.06215286254883,0.154809355735779,1.75599336624146,-0.761444211006165,0.302087694406509,-0.136837646365166,0.33691343665123,-0.262831002473831
93,0.226836755871773,0.076042883098126,1.04038715362549,-0.264750778675079,2.2842218875885,4.43973016738892,1.75577688217163,-0.762209832668304,0.300166815519333,-0.102494217455387,0.285447239875793,-0.248416021466255
94,0.100552618503571,-0.034323170781136,0.951394200325012,-0.313241571187973,0.203976780176163,4.20971345901489,1.75462865829468,-0.762027442455292,0.299802005290985,-0.146205887198448,0.344635546207428,-0.19228221476078
95,0.309158533811569,-0.525407373905182,1.06439709663391,-2.14517116546631,-0.970309793949127,4.01451587677002,1.75220680236816,-0.761720359325409,0.299279063940048,-0.181990653276443,0.580516517162323,-0.119598366320133
96,0.465591579675674,-0.700304985046387,1.11233115196228,-1.39052104949951,-2.20596671104431,4.0786190032959,1.75202965736389,-0.761553466320038,0.296383023262024,-0.254664719104767,0.50859147310257,-0.085179299116135
97,0.565286695957184,-0.283762097358704,1.01756465435028,1.01679563522339,-0.04743879660964,4.09819507598877,1.75107729434967,-0.762317180633545,0.29599940776825,-0.20634326338768,0.52345484495163,-0.05197461694479
98,0.272021353244781,0.009878193959594,1.02612447738647,1.22673869132996,1.55860638618469,3.21488380432129,1.74960505962372,-0.763105452060699,0.295597195625305,-0.142513185739517,0.584479629993439,-0.014102607034147
99,0.431994438171387,-0.044429894536734,1.03255748748779,1.26192247867584,3.59204030036926,4.10484790802002,1.74940359592438,-0.764046907424927,0.295426517724991,-0.08596009016037,0.449814260005951,0.002601066604257
100,0.290752172470093,-0.244085609912872,0.986927509307861,1.33921909332275,5.34172105789185,3.56700801849365,1.74771010875702,-0.76408052444458,0.296323716640472,-0.084837421774864,0.528306484222412,0.053520891815424
101,0.291578739881516,-0.87362802028656,1.05187177658081,0.37660276889801,6.58525323867798,2.8515145778656,1.74609327316284,-0.763987481594086,0.296057939529419,-0.109910756349564,0.572173297405243,0.101728908717632
102,0.264691591262817,-0.454308927059174,1.03361177444458,-0.516243934631348,5.12339925765991,3.72383952140808,1.74575316905975,-0.764034032821655,0.296041190624237,-0.135366126894951,0.421603322029114,0.132101595401764
103,0.228746071457863,-0.635362267494202,0.953060328960419,3.78461575508118,15.4931945800781,4.79067993164063,1.74533534049988,-0.763974487781525,0.297369569540024,-0.179206281900406,0.29825085401535,0.165063932538033
104,0.233316838741302,-0.685561239719391,1.05477833747864,-5.39288187026978,1.81457555294037,-0.538414478302002,1.74530649185181,-0.765830934047699,0.297483146190643,-0.046846657991409,0.017179384827614,0.157536506652832
105,0.022751016542316,-0.348174124956131,1.28912568092346,-2.59079146385193,3.00778818130493,3.60492730140686,1.74498736858368,-0.765518128871918,0.297524601221085,-0.15509769320488,-0.053323332220316,0.179323434829712
106,0.152795940637589,0.08735103905201,1.17674958705902,-4.08905696868897,-1.02059209346771,2.32655429840088,1.74224936962128,-0.766785681247711,0.298419833183289,-0.075614467263222,0.143163815140724,0.209748551249504
107,0.350311756134033,-0.058692138642073,0.946056365966797,-1.7883985042572,-3.68202972412109,0.752516210079193,1.74091947078705,-0.766454815864563,0.298807740211487,-0.171556890010834,0.227254569530487,0.243703484535217
108,0.073550157248974,-0.143459245562553,1.04775846004486,-0.678789019584656,-3.84024953842163,1.20558166503906,1.74000489711761,-0.766369104385376,0.299253553152084,-0.225837767124176,0.256322652101517,0.258510291576385
109,0.009163621813059,-0.151320919394493,1.08227372169495,-3.30288124084473,-2.2041347026825,-0.090474873781204,1.73961865901947,-0.766401529312134,0.302198737859726,-0.266324907541275,0.210546612739563,0.262353301048279
110,0.553199887275696,-0.184904664754868,0.990936100482941,-1.78606855869293,-0.486331611871719,-0.911586046218872,1.73936188220978,-0.766291260719299,0.302924662828445,-0.328872323036194,0.15110094845295,0.259805589914322
111,0.844582080841064,-0.245471194386482,0.97102290391922,-2.48784065246582,-1.66514408588409,-0.672588586807251,1.73792958259583,-0.766903221607208,0.303566247224808,-0.305410534143448,0.203550904989242,0.252209097146988
112,0.375671118497848,-0.506285846233368,0.983519613742828,-1.82539761066437,2.09696912765503,-1.44359922409058,1.73718726634979,-0.766788244247437,0.304233938455582,-0.358935385942459,0.192886739969254,0.243549987673759
113,0.334622412919998,-0.673114776611328,1.08874154090881,-2.64741396903992,0.807424247264862,-2.03811955451965,1.73445951938629,-0.767183244228363,0.302582621574402,-0.365139275789261,0.397223025560379,0.232824429869652
114,0.478606373071671,-0.644580662250519,1.07069480419159,-1.73122549057007,1.16641688346863,-1.69156241416931,1.73396587371826,-0.770183622837067,0.30331763625145,-0.119034208357334,0.251893907785416,0.180438980460167
115,0.134648755192757,-0.919719934463501,1.00349199771881,-3.89364075660706,2.16393113136291,-1.67489850521088,1.73190426826477,-0.770735621452331,0.303837776184082,-0.130852863192558,0.365086883306503,0.165118113160133
116,-0.122736744582653,-0.646169006824493,1.19218051433563,-8.89786911010742,-5.85298490524292,-4.24928045272827,1.73192870616913,-0.770371019840241,0.305196732282639,-0.275988757610321,0.268747985363007,0.145671978592873
117,0.245990619063377,0.073180891573429,1.02514016628265,-9.05613136291504,-0.205442681908607,-2.04192209243774,1.73110604286194,-0.771346747875214,0.306048482656479,-0.309167951345444,0.247508883476257,0.107118472456932
118,0.203582912683487,0.034363467246294,0.815778732299805,-8.89266586303711,4.45884704589844,-4.46419286727905,1.73033261299133,-0.771443247795105,0.307077616453171,-0.456597149372101,0.212254881858826,0.083925716578961
119,0.140980660915375,0.182640805840492,0.755631029605866,-10.9540128707886,0.215584114193916,-2.96918225288391,1.7295309305191,-0.770626425743103,0.300559490919113,-0.677706241607666,0.203187003731728,0.059325233101845
120,0.033598676323891,-0.009918306022882,0.98775839805603,-11.4605178833008,-1.84226417541504,-3.24983739852905,1.72741901874542,-0.770612120628357,0.300588220357895,-0.819063127040863,0.318089514970779,0.030836204066873
121,0.076849758625031,-0.074451223015785,0.965057730674744,-9.31448841094971,-0.187940910458565,-3.70372104644775,1.72718250751495,-0.77159059047699,0.300762236118317,-0.838080763816834,0.227166816592216,-0.009466868825257
122,0.038665983825922,-0.222254112362862,0.963063716888428,-5.18565607070923,-1.4458281993866,-3.74586415290833,1.72629487514496,-0.771709680557251,0.300792068243027,-0.934337079524994,0.236956164240837,-0.045046992599964
123,0.73325103521347,-0.183191031217575,0.839057922363281,-2.18105602264404,-1.93101906776428,-5.37619495391846,1.72465348243713,-0.772268712520599,0.302497148513794,-0.946619987487793,0.309466928243637,-0.091489732265472
124,0.541459321975708,-0.148938849568367,0.874191641807556,0.816848278045654,0.610007107257843,-3.89562273025513,1.72421646118164,-0.775177955627441,0.302586227655411,-0.694830596446991,0.233348548412323,-0.148799926042557
125,0.543467998504639,-0.029179072007537,0.972976922988892,-0.285661965608597,0.756926953792572,-2.89036631584167,1.72279071807861,-0.775264739990234,0.302420139312744,-0.734478950500488,0.279615104198456,-0.185520082712173
126,0.294578850269318,-0.100370272994041,0.972765564918518,-0.996635913848877,1.08668899536133,-3.97835564613342,1.71983170509338,-0.773926675319672,0.303631961345673,-0.922513365745544,0.450910747051239,-0.225002989172935
127,0.234930783510208,-0.24443593621254,0.998942971229553,-4.62631273269653,3.98853039741516,-3.78390169143677,1.71831333637238,-0.774623453617096,0.303469479084015,-0.905698299407959,0.457496494054794,-0.272688120603561
128,0.036218296736479,-0.411808967590332,1.00015485286713,-5.13997840881348,5.26983213424683,-3.34760856628418,1.71925139427185,-0.774722337722778,0.30358299612999,-0.948085486888886,0.227862134575844,-0.278836369514465
129,0.05757749453187,-0.109201110899448,1.01102423667908,-5.31052684783936,6.22933292388916,-3.79885387420654,1.71835064888001,-0.774349749088287,0.300582766532898,-1.06047117710114,0.171727448701859,-0.311419904232025
130,0.030691923573613,-0.031530156731606,1.01441872119904,-2.51165676116943,4.37133264541626,-3.2593948841095,1.71856045722961,-0.773002922534943,0.300326228141785,-1.24059855937958,0.036338891834021,-0.318118661642075
131,-0.047282595187426,-0.132474988698959,1.05137836933136,-1.27680790424347,4.08799982070923,-2.97713351249695,1.71939170360565,-0.774086236953735,0.300225436687469,-1.13254368305206,-0.164165675640106,-0.329261958599091
132,0.190426632761955,-0.009517427533865,1.0458996295929,4.17788457870483,-0.726186335086823,-1.61435163021088,1.71551990509033,-0.775320291519165,0.299904644489288,-1.06746518611908,0.023218747228384,-0.413071721792221
133,-0.053793672472239,-0.05010299384594,0.966850280761719,8.64701175689697,-0.481649339199066,1.21259260177612,1.71376621723175,-0.775021493434906,0.296555906534195,-1.0723477602005,0.079111471772194,-0.437965124845505
134,0.072780199348927,-0.067672714591026,1.00799596309662,8.15964889526367,-6.79063367843628,-2.10552477836609,1.71402144432068,-0.775267839431763,0.29625791311264,-0.95665568113327,0.027607753872871,-0.416926801204681
135,0.67724597454071,-0.197882130742073,0.976103365421295,6.45361518859863,-6.69202899932861,-1.49066114425659,1.7115513086319,-0.776048243045807,0.29575502872467,-0.838529586791992,0.185343608260155,-0.466476559638977
136,0.837705254554749,-0.358715206384659,1.02523279190063,5.57585048675537,-4.52961921691895,-0.433389127254486,1.71052587032318,-0.776408791542053,0.29640457034111,-0.753455281257629,0.226518616080284,-0.469263315200806
137,0.295595079660416,-0.836470067501068,1.05886352062225,3.41643476486206,-1.87409031391144,-0.02216149866581,1.70981633663178,-0.775891900062561,0.296087086200714,-0.771076381206512,0.227616786956787,-0.463645160198212
138,0.128434151411057,-0.311962872743607,1.13479816913605,1.34274482727051,2.9931628704071,-0.845305681228638,1.70821225643158,-0.776127636432648,0.295753687620163,-0.739632070064545,0.252330631017685,-0.476767659187317
139,0.682006597518921,-0.167037770152092,1.05522274971008,1.06878256797791,5.69243955612183,-0.104280456900597,1.70925831794739,-0.775720953941345,0.297855913639069,-0.740990161895752,0.05811008065939,-0.439440339803696
140,0.272572576999664,-0.173541471362114,0.96580696105957,0.393506467342377,5.96668338775635,0.127915248274803,1.70592129230499,-0.776067674160004,0.297724157571793,-0.749583721160889,0.152699336409569,-0.485564410686493
141,0.319692939519882,0.001576849026605,1.05177175998688,2.78567242622375,6.81506299972534,1.09969782829285,1.70504653453827,-0.77535206079483,0.297724366188049,-0.805953085422516,0.07088328152895,-0.47267547249794
142,0.082049362361431,-0.586649119853973,0.932822585105896,7.62933826446533,11.2834272384644,2.5516459941864,1.70183527469635,-0.775822579860687,0.294761478900909,-0.769894540309906,0.156848534941673,-0.509736835956574
143,-0.007782261352986,-0.353850603103638,0.942348539829254,5.97189378738403,1.38815379142761,0.600417852401733,1.70318722724915,-0.775801956653595,0.294757544994354,-0.660491228103638,-0.0899837911129,-0.44851279258728
144,0.150569945573807,-0.270130574703217,1.00238120555878,8.7908239364624,2.06310486793518,1.81102001667023,1.70169246196747,-0.776285409927368,0.29446491599083,-0.549569666385651,-0.079449065029621,-0.445689678192139
145,0.127540901303291,-0.370525240898132,0.951493740081787,7.77704000473022,-1.9401159286499,1.35284948348999,1.70006954669952,-0.776837825775147,0.294138640165329,-0.422017395496368,-0.043606854975224,-0.442718476057053
146,0.149765476584435,-0.181645035743713,1.19147276878357,2.20505261421204,-0.806398749351501,1.81153440475464,1.69857847690582,-0.777430951595306,0.291070699691772,-0.301582276821136,-0.00148768723011,-0.427178680896759
147,0.262105643749237,-0.418267607688904,1.29631209373474,4.22110080718994,-1.08955264091492,2.72690486907959,1.69788825511932,-0.776114881038666,0.290878087282181,-0.406269878149033,-0.026118231937289,-0.401362627744675
148,0.63875025510788,-0.33313849568367,1.02612709999084,3.89774036407471,1.11312448978424,3.6426088809967,1.6984179019928,-0.776875495910645,0.290976494550705,-0.260836809873581,-0.15325103700161,-0.340865284204483
149,0.331007212400436,-0.023917138576508,1.00915420055389,2.74093079566956,2.43341588973999,3.24191641807556,1.69704401493073,-0.777141511440277,0.290337175130844,-0.212492510676384,-0.140553489327431,-0.314360797405243
150,0.219217523932457,-0.104071266949177,1.00199782848358,3.78727722167969,2.38387656211853,6.2508020401001,1.69622421264648,-0.776544094085693,0.29039990901947,-0.252420216798782,-0.204184532165527,-0.277765542268753
151,0.613818943500519,-0.518695831298828,1.09743440151215,-0.627981185913086,2.44780492782593,3.04490375518799,1.69486200809479,-0.776484906673431,0.290417641401291,-0.252372920513153,-0.193032994866371,-0.242550894618034
152,0.177924811840057,-0.309076488018036,1.04660725593567,0.223069384694099,-0.391285270452499,2.80278158187866,1.69256508350372,-0.776571810245514,0.293657094240189,-0.25416162610054,-0.096440993249416,-0.224349990487099
153,0.025005547329784,-0.713382422924042,0.951044261455536,1.50585436820984,-0.570890188217163,2.46477675437927,1.6909841299057,-0.77609795331955,0.293965399265289,-0.302403748035431,-0.0672951862216,-0.206016823649406
154,0.333160907030106,-0.134165957570076,1.08503019809723,3.4618284702301,-1.71521353721619,2.46246862411499,1.69090592861176,-0.776253759860992,0.294454485177994,-0.247530877590179,-0.169967710971832,-0.170754417777061
155,0.231428533792496,-0.01943688467145,1.06939589977264,3.6471688747406,-2.14486479759216,1.55002677440643,1.69072282314301,-0.776446580886841,0.294946312904358,-0.17569474875927,-0.250433027744293,-0.144079014658928
156,0.029752565547824,-0.089401751756668,0.985098242759705,6.20011043548584,0.140178382396698,1.99562931060791,1.68810796737671,-0.776707649230957,0.296327888965607,-0.094748951494694,-0.055605437606573,-0.12543822824955
157,0.377242892980576,-0.344147115945816,0.982845544815064,5.20188999176025,-1.9465274810791,1.64070093631744,1.68723678588867,-0.776437520980835,0.296891361474991,-0.079363733530045,-0.09688962250948,-0.11296983063221
158,0.356896281242371,-0.767752528190613,1.0967470407486,3.85492014884949,-2.1120502948761,1.7175874710083,1.68571174144745,-0.776575326919556,0.297322601079941,-0.005978520959616,-0.038901422172785,-0.088090106844902
159,0.137044489383698,-0.458646982908249,1.11844718456268,1.56371867656708,0.093811504542828,1.46511912345886,1.68493175506592,-0.776658356189728,0.297838598489761,0.028263991698623,-0.070963829755783,-0.076070263981819
160,0.351034700870514,-0.381781369447708,1.04787147045136,-0.301275968551636,-2.19626688957214,0.512238621711731,1.68406867980957,-0.776631832122803,0.298552095890045,0.026239592581987,-0.103624932467937,-0.066537909209728
161,0.222283989191055,-0.644057273864746,0.96462094783783,-5.53481245040894,0.99424660205841,0.115659706294537,1.68315625190735,-0.776369035243988,0.299297243356705,-0.03129817172885,-0.135300368070602,-0.071539930999279
162,0.226462200284004,-0.658500611782074,0.969949901103973,-4.68120050430298,0.467761278152466,-0.245446875691414,1.68234550952911,-0.776209950447083,0.300711721181869,-0.103824108839035,-0.177241101861,-0.078469999134541
163,0.158328592777252,-0.58813887834549,1.09290909767151,-5.20783662796021,0.368515253067017,-0.052480336278677,1.6814272403717,-0.775978326797485,0.301457643508911,-0.169424578547478,-0.202818974852562,-0.080249160528183
164,0.003036794019863,-0.544773399829865,0.981347143650055,-4.98881387710571,0.406121104955673,0.282775670289993,1.68053710460663,-0.775768995285034,0.302236199378967,-0.235821291804314,-0.221687018871307,-0.084809646010399
165,0.020993510261178,0.085968121886253,1.07541882991791,-4.30958843231201,-1.98780584335327,-0.605657994747162,1.67929017543793,-0.775984585285187,0.303009271621704,-0.226941183209419,-0.14810948073864,-0.071390777826309
166,0.066444434225559,-0.055211950093508,1.04411268234253,-0.416915237903595,-2.81229400634766,-0.739006221294403,1.67752957344055,-0.775883197784424,0.301307857036591,-0.254053115844727,-0.010161763057113,-0.059418700635433
167,-0.07054852694273,0.039759285748005,0.979062259197235,4.11036348342896,-0.861115574836731,2.05245590209961,1.67721521854401,-0.776703715324402,0.302168071269989,-0.140586003661156,-0.096771478652954,-0.059093620628119
168,-0.108031116425991,-0.144078239798546,0.970013201236725,1.64627254009247,-4.10565900802612,-1.23759973049164,1.67571926116943,-0.776702344417572,0.302840262651443,-0.107448235154152,0.000530070334207,-0.051709666848183
169,0.19428451359272,-0.342393487691879,1.0191353559494,2.48202538490295,-6.32266616821289,-1.63407182693481,1.67401468753815,-0.77556449174881,0.300526410341263,-0.230189442634582,0.099237143993378,-0.073484189808369
170,0.073135145008564,-0.21188423037529,0.979931950569153,-0.491554826498032,-1.57177257537842,-1.57748162746429,1.67307341098785,-0.775522708892822,0.301105231046677,-0.211511507630348,0.106155686080456,-0.096577391028404
171,0.243208006024361,0.075216859579086,0.929200947284698,-1.57089602947235,1.03955042362213,-2.08862805366516,1.67294001579285,-0.77608323097229,0.301810026168823,-0.150386065244675,-0.000768545898609,-0.122196801006794
172,0.082864210009575,-0.172732591629028,0.929481029510498,-3.43467164039612,3.02682995796204,-1.21855306625366,1.67244625091553,-0.777168929576874,0.300184994935989,-0.056071147322655,-0.056139275431633,-0.132054507732391
173,0.11746322363615,0.004549603443593,0.956133186817169,-6.72416543960571,4.25843477249146,-1.42494451999664,1.67047846317291,-0.775508046150208,0.300454288721085,-0.292891144752502,0.014324112795293,-0.149025619029999
174,0.114374995231628,-0.411410123109818,0.97460925579071,-4.63391876220703,2.44393706321716,-1.70012629032135,1.66945433616638,-0.776412010192871,0.300735116004944,-0.233958035707474,-0.006322619970888,-0.156436115503311
175,0.005292484536767,-0.261057674884796,0.954277217388153,-3.99044728279114,0.809575021266937,-1.34835410118103,1.66873204708099,-0.776852548122406,0.301666736602783,-0.239278957247734,-0.084223955869675,-0.172481641173363
176,0.076131455600262,-0.255372196435928,0.976517081260681,-3.93451905250549,2.39364504814148,-1.33443808555603,1.66743624210358,-0.776627421379089,0.301872581243515,-0.308415859937668,-0.074906326830387,-0.186418607831001
177,0.03730383887887,-0.064212523400784,0.979127943515778,-1.49656796455383,0.898208022117615,-2.04371547698975,1.66672420501709,-0.77664190530777,0.302119940519333,-0.341987431049347,-0.137222066521645,-0.207865610718727
178,0.009339311160147,0.005990101955831,0.989179491996765,0.39281290769577,0.192915201187134,-1.77584719657898,1.66644513607025,-0.77677834033966,0.302390724420547,-0.340610057115555,-0.244593277573585,-0.232499465346336
179,0.061380833387375,-0.107722848653793,0.980854988098144,1.20388829708099,-0.012695117853582,-1.33732271194458,1.66504454612732,-0.776200473308563,0.300011903047562,-0.390485763549805,-0.176481038331986,-0.248700827360153
180,0.100606217980385,0.037782985717058,1.02135443687439,3.66400265693665,-3.40731596946716,-0.62949138879776,1.66399526596069,-0.775781452655792,0.300026804208755,-0.408917099237442,-0.151273995637894,-0.257725298404694
181,0.059289734810591,-0.157421931624413,0.966227233409882,5.55487442016602,-3.552077293396,-0.399343639612198,1.66305232048035,-0.776096940040588,0.300048500299454,-0.317628741264343,-0.110965929925442,-0.260295212268829
182,0.096341550350189,-0.076405286788941,1.03899323940277,3.38278150558472,-2.61555171012878,-0.078595094382763,1.66271531581879,-0.776295363903046,0.301130086183548,-0.238569125533104,-0.147679373621941,-0.264130413532257
183,0.119326174259186,-0.355787873268127,1.03905427455902,4.15984344482422,-3.13222908973694,0.114498034119606,1.66072571277618,-0.776392877101898,0.301137149333954,-0.176336005330086,0.015385909006,-0.252412736415863
184,0.140118837356567,-0.43669381737709,1.03449535369873,2.48998999595642,-2.37742924690247,-0.427438706159592,1.6609388589859,-0.776606678962708,0.301467537879944,-0.129858300089836,-0.121271215379238,-0.26325923204422
185,0.398074060678482,-0.182713285088539,1.0017626285553,1.93233358860016,-0.252508103847504,-0.064408384263516,1.65966582298279,-0.776602745056152,0.298309922218323,-0.10637541115284,-0.047565270215273,-0.262074083089828
186,-0.002349741524085,-0.135061219334602,0.973674237728119,2.06900787353516,-2.91690731048584,0.232241049408913,1.65717685222626,-0.776561260223389,0.298123002052307,-0.08506516367197,0.156963855028152,-0.243864879012108
187,0.055894356220961,-0.216876849532127,1.01768183708191,-0.664263308048248,-0.965213775634766,0.656046807765961,1.6556648015976,-0.776485085487366,0.298013895750046,-0.07716841250658,0.211388364434242,-0.235657781362534
188,0.230188846588135,-0.471651673316956,1.00669574737549,-0.12569123506546,1.23072254657745,-0.038426209241152,1.65608060359955,-0.77663004398346,0.298357844352722,-0.085620723664761,0.011855442076922,-0.255070686340332
189,0.224859163165092,-0.740123689174652,0.910945773124695,2.72785592079163,11.2058591842651,2.90141081809998,1.65558087825775,-0.776678681373596,0.297203868627548,-0.077549777925015,-0.096362270414829,-0.249960631132126
190,0.224767059087753,-0.154900565743446,1.00002467632294,-1.95219397544861,2.38101148605347,0.855290353298187,1.65434205532074,-0.776494204998016,0.297054141759872,-0.09254764765501,-0.098551824688912,-0.233726978302002
191,0.071802839636803,-0.097744107246399,1.06882905960083,-1.48263967037201,0.930237352848053,-0.254861801862717,1.65412938594818,-0.776494204998016,0.297028928995132,-0.116514176130295,-0.206931605935097,-0.237358212471008
192,0.326530516147613,-0.910763382911682,1.07834613323212,0.356090903282165,-0.486518532037735,1.7618488073349,1.65228712558746,-0.776416897773743,0.294821262359619,-0.119405932724476,-0.06638266146183,-0.213480114936829
193,0.482291847467423,-0.67210578918457,1.01906108856201,1.88882517814636,-1.4944816827774,0.905370354652405,1.65197026729584,-0.777247667312622,0.294801622629166,-0.016967196017504,-0.123672813177109,-0.204114109277725
194,0.262563645839691,-0.771491169929504,1.05842185020447,2.11786890029907,-3.47683668136597,2.20286273956299,1.65059232711792,-0.777316510677338,0.294684261083603,0.012321966700256,-0.017384735867381,-0.179076477885246
195,0.039557095617056,-0.596372246742249,0.977420032024384,4.31427907943726,-2.36199927330017,3.35340070724487,1.64909219741821,-0.776884853839874,0.294019341468811,-0.008577341213822,0.076170034706593,-0.147203236818314
196,0.064548335969448,-0.04012057185173,1.03320348262787,3.09016060829163,-2.68180966377258,2.02914762496948,1.64866733551025,-0.777141034603119,0.294036149978638,0.043904513120651,0.018208347260952,-0.129400208592415
197,0.157435163855553,-0.051670931279659,1.037113904953,2.11056184768677,-1.08379399776459,3.15535449981689,1.64783942699432,-0.777214348316193,0.293993800878525,0.074830487370491,0.021139575168491,-0.104340799152851
198,0.843443036079407,-0.160352721810341,1.07655096054077,1.40187811851501,0.783086597919464,3.14317297935486,1.64656341075897,-0.777216374874115,0.294294476509094,0.089811287820339,0.070035979151726,-0.069164529442787
199,0.776123642921448,-0.148829728364944,0.954129040241241,-1.72752475738525,3.39834308624268,3.35320591926575,1.64494287967682,-0.776924908161163,0.294283539056778,0.06533133238554,0.149476677179337,-0.02414857968688
200,0.657319188117981,-0.390365570783615,1.05148458480835,-0.200680926442146,1.26874756813049,3.28313755989075,1.64465296268463,-0.777033984661102,0.294523179531097,0.040255755186081,-0.010789647698402,-0.011558865197003
201,0.190296113491058,-0.316495001316071,1.07408261299133,-1.84343636035919,2.63662004470825,3.02116298675537,1.64342021942139,-0.776896595954895,0.294572860002518,0.016294015571475,-0.003060293383896,0.028241597115994
202,0.463917165994644,-0.010557737201452,1.07521545886993,0.39208060503006,2.51957392692566,2.73881220817566,1.64272260665894,-0.777007758617401,0.294240146875382,0.011777501553297,-0.075543254613876,0.046824008226395
203,0.494174897670746,0.002593791577965,0.945574343204498,2.16691994667053,-0.119905643165112,2.96064114570618,1.64103090763092,-0.777021706104279,0.294331699609757,0.040983688086271,0.025199327617884,0.097744420170784
204,0.330236464738846,-0.111140042543411,1.01747179031372,3.06372451782227,-1.98974561691284,2.9431300163269,1.63963007926941,-0.777062833309174,0.294437617063522,0.081295616924763,0.08182679861784,0.134651437401772
205,-0.015061823651195,-0.049823015928269,1.05023980140686,3.84415459632874,-0.590651631355285,2.5578670501709,1.63923525810242,-0.777392208576202,0.292081713676453,0.12405501306057,-0.009569608606398,0.141795665025711
206,0.133484482765198,0.100264266133308,1.03817844390869,2.09589672088623,-2.34917187690735,2.35380411148071,1.63795006275177,-0.777450263500214,0.292086899280548,0.157781466841698,0.049655273556709,0.176230177283287
207,0.039707113057375,-0.239942863583565,1.00220680236816,1.06763052940369,-0.691774189472199,2.64452648162842,1.63747370243073,-0.777697682380676,0.292276531457901,0.175991520285606,-0.04051860421896,0.182374611496925
208,0.132837817072868,-0.568897128105164,0.989043653011322,0.822175920009613,2.44267725944519,1.9524781703949,1.63634765148163,-0.777698159217835,0.293224811553955,0.18519438803196,-0.005255543161184,0.207740738987923
209,0.127567753195763,-0.11910056322813,0.990342259407043,-1.31011724472046,1.41911745071411,1.57008862495422,1.63516128063202,-0.777555406093597,0.293315142393112,0.173077329993248,0.01661591231823,0.236370533704758
210,0.887509226799011,-0.200960770249367,1.0958776473999,-1.76894927024841,2.72790861129761,2.10917162895203,1.63475286960602,-0.777654588222504,0.293560981750488,0.13743095099926,-0.118013560771942,0.230875715613365
211,0.689947545528412,-0.164763644337654,1.11828708648682,-1.89756655693054,3.16857361793518,1.26368927955627,1.633256316185,-0.778037071228027,0.293689608573914,0.177805036306381,-0.024729609489441,0.273969233036041
212,0.252348691225052,-0.301777184009552,0.985382914543152,-2.08095526695251,0.895482778549194,0.919163227081299,1.63247430324554,-0.777927935123444,0.292420536279678,0.127589881420136,-0.086235016584396,0.275758743286133
213,0.123542629182339,-0.20900771021843,0.950140416622162,-2.11153030395508,-0.057030953466892,1.31434321403503,1.63162934780121,-0.777868092060089,0.292674124240875,0.077606603503227,-0.130470931529999,0.281479686498642
214,0.11464074999094,-0.239746168255806,0.997440576553345,-2.96493101119995,0.534003078937531,0.748392820358276,1.6300927400589,-0.778888642787933,0.292743742465973,0.185940429568291,-0.013837786391378,0.320462077856064
215,0.112328879535198,0.034158498048782,1.10069572925568,-0.663155496120453,-0.119482316076756,0.906749904155731,1.62964987754822,-0.779664576053619,0.293472230434418,0.212791636586189,-0.140953838825226,0.304870307445526
216,0.27789843082428,-0.20431549847126,1.02742600440979,-0.908804178237915,-0.526243329048157,1.11954641342163,1.62889790534973,-0.780988395214081,0.293735891580582,0.323191672563553,-0.170262932777405,0.314067929983139
217,0.106528416275978,-0.805399656295776,1.06644582748413,-1.24329197406769,-1.63393759727478,1.4819610118866,1.62650811672211,-0.780444920063019,0.293872892856598,0.261478304862976,0.120819926261902,0.388298183679581
218,0.342233717441559,-0.305904567241669,1.04262065887451,-3.00025582313538,-1.82405686378479,0.779303967952728,1.625856757164,-0.780460476875305,0.291894674301147,0.184654355049133,0.033444054424763,0.370311111211777
219,0.508220553398132,-0.037186313420534,1.01496696472168,-6.44987869262695,-2.84406518936157,0.396647691726685,1.6252613067627,-0.781500458717346,0.292236804962158,0.216333344578743,-0.030127972364426,0.361619025468826
220,0.530776619911194,0.037866748869419,1.02453398704529,-6.7953372001648,-0.510323882102966,1.18148732185364,1.62432861328125,-0.781245291233063,0.292584508657455,0.07119008153677,-0.024984462186694,0.359853178262711
221,0.663553357124329,-0.03691678121686,0.993260562419891,-7.03967809677124,2.43427586555481,0.951809227466583,1.62395536899567,-0.782266020774841,0.293015986680984,0.075282245874405,-0.132935494184494,0.344882220029831
222,0.207977384328842,-0.03758554905653,0.934091806411743,-8.82104206085205,-0.094134017825127,0.022538911551237,1.62318003177643,-0.781782746315002,0.291614145040512,-0.102565072476864,-0.165060684084892,0.348472326993942
223,-0.013661362230778,-0.261411041021347,1.02037727832794,-8.22612953186035,1.68805551528931,0.932350337505341,1.62163829803467,-0.781851589679718,0.291728138923645,-0.196972087025642,-0.052604101598263,0.376219660043716
224,0.090296179056168,-0.125828564167023,1.02583801746368,-8.07090282440186,0.020247485488653,0.314759939908981,1.6213344335556,-0.783516407012939,0.292018592357635,-0.121770076453686,-0.162640377879143,0.370634645223618
225,0.097766138613224,0.104955986142159,0.9741530418396,-3.60997152328491,0.665154218673706,-0.258552044630051,1.62003004550934,-0.782587826251983,0.290508478879929,-0.331152468919754,-0.111586198210716,0.372133255004883
226,0.011272141709924,-0.114258296787739,0.946598649024963,-3.4593780040741,-2.98079371452332,0.443869769573212,1.61885690689087,-0.784339189529419,0.290579974651337,-0.189300715923309,-0.047946207225323,0.397170633077622
227,0.646306693553925,-0.06759624928236,1.00893831253052,-1.46786141395569,-2.69095730781555,0.891338586807251,1.61891269683838,-0.784459173679352,0.2908656001091,-0.259131073951721,-0.181204259395599,0.383397907018661
228,0.495391637086868,-0.6028853058815,1.00900363922119,0.130947470664978,-3.10932350158691,0.493486911058426,1.61810553073883,-0.785109460353851,0.291296601295471,-0.230865776538849,-0.147144258022308,0.390185415744781
229,0.608096480369568,-0.781298875808716,1.04160749912262,-2.25017380714416,-3.20232653617859,0.337409526109695,1.61666214466095,-0.785578012466431,0.291336834430695,-0.225483402609825,-0.024577585980296,0.405482083559036
230,0.380086600780487,-0.402538657188415,1.087681889534,-6.53825521469116,-2.03108930587769,0.577977240085602,1.6163090467453,-0.785874605178833,0.291562616825104,-0.277762293815613,-0.067613959312439,0.404631525278091
231,0.006379409693182,-0.282318890094757,1.00921213626862,-6.91599559783936,-1.13365149497986,0.237661466002464,1.61487233638763,-0.785532176494598,0.290815323591232,-0.428817361593246,0.035535663366318,0.405451118946075
232,0.208619222044945,-0.120381578803062,1.04466700553894,-7.58952808380127,-2.33418488502502,-0.132949531078339,1.61460292339325,-0.785790681838989,0.291074156761169,-0.498375177383423,-0.023514702916145,0.408623605966568
233,0.119905963540077,-0.072666741907597,0.994485139846802,-6.49106597900391,-2.03711581230164,0.118579298257828,1.61371910572052,-0.786117076873779,0.291280210018158,-0.565636575222015,0.004987030755728,0.409106552600861
234,-0.014849603176117,-0.132497757673264,1.1002516746521,-7.57131910324097,-2.35256600379944,-0.288835018873215,1.61208415031433,-0.78583961725235,0.291442900896072,-0.696469306945801,0.113924905657768,0.405042350292206
235,0.317794680595398,-0.117792330682278,1.01588654518127,-2.30120587348938,-3.50478887557983,0.777388751506805,1.61122977733612,-0.78704023361206,0.291617870330811,-0.637148320674896,0.138050377368927,0.405300587415695
236,0.411101162433624,0.04219313710928,0.995231330394745,1.41503477096558,-3.88504457473755,0.449078321456909,1.61029171943665,-0.787211894989014,0.291950851678848,-0.664579093456268,0.166541367769241,0.412487745285034
237,0.050750069320202,-0.541617631912231,1.00809609889984,0.922859489917755,-3.61098599433899,0.084381967782974,1.60933828353882,-0.788524031639099,0.292270332574844,-0.529700458049774,0.201549082994461,0.413222521543503
238,0.218270748853683,-0.787865936756134,1.08160603046417,3.96048951148987,-2.09233093261719,-1.07937943935394,1.60782301425934,-0.788193941116333,0.293763548135757,-0.608506917953491,0.284891098737717,0.402777880430222
239,0.278300434350967,-0.364153027534485,1.08406162261963,2.41141128540039,-0.188096702098846,0.600296080112457,1.60729515552521,-0.787600696086883,0.294289350509644,-0.669926643371582,0.252112299203873,0.408129513263702
240,0.039281535893679,-0.21106019616127,0.980169475078583,-2.22466087341309,2.19691371917725,0.36469292640686,1.60515820980072,-0.787571609020233,0.294687360525131,-0.696391820907593,0.353139668703079,0.396820992231369
241,0.100677937269211,-0.087026968598366,0.980625092983246,-3.10634660720825,2.83657193183899,-0.738825380802154,1.60410606861115,-0.787705481052399,0.294131278991699,-0.716919302940369,0.329348415136337,0.397784173488617
242,0.090281017124653,-0.06338756531477,0.992200613021851,-4.59126663208008,3.62747550010681,-0.293745636940002,1.60478067398071,-0.78874397277832,0.294760376214981,-0.650444507598877,0.137739092111588,0.41009995341301
243,0.035241089761257,-0.413180708885193,1.103400349617,-5.33820581436157,4.32485437393189,0.783342957496643,1.60357117652893,-0.788398563861847,0.295231282711029,-0.764450252056122,0.122921012341976,0.411246627569199
244,0.125067308545113,-0.381569266319275,1.11006915569305,-2.69425320625305,1.99356317520142,0.186319977045059,1.60134494304657,-0.788332998752594,0.295681208372116,-0.833770513534546,0.193703547120094,0.399083316326141
245,0.120619095861912,-0.508247137069702,1.14192914962769,-0.572110712528229,-0.548814713954926,-0.778322696685791,1.60076439380646,-0.789519548416138,0.296509206295013,-0.748263537883758,0.123699054121971,0.39639413356781
246,0.107427276670933,-0.987518966197968,1.05643403530121,0.152750253677368,0.351354539394379,-0.84110164642334,1.59914779663086,-0.789704322814941,0.29726043343544,-0.746653020381928,0.162981405854225,0.37960621714592
247,0.044750262051821,-0.763560652732849,0.991962909698486,0.570417881011963,0.142498940229416,-0.368086099624634,1.59945142269135,-0.789615750312805,0.298210471868515,-0.753103315830231,0.06253656744957,0.396669924259186
248,0.016109170392156,-0.143403172492981,0.971623241901398,-0.224560111761093,-1.70844495296478,-1.36670470237732,1.59981215000153,-0.789386630058289,0.297369420528412,-0.77702271938324,-0.022741254419088,0.41384020447731
249,0.203603133559227,-0.323806822299957,1.00032091140747,0.073399275541306,-0.014404629357159,-0.594243168830872,1.59798514842987,-0.789540112018585,0.298060417175293,-0.782074987888336,0.061909437179566,0.385013610124588
250,0.058366138488054,-0.187339246273041,0.984728336334228,-0.402061015367508,-2.17612671852112,-1.21448564529419,1.59821760654449,-0.789337277412415,0.298835575580597,-0.796662330627441,0.004124768078327,0.397986948490143
251,0.006202145945281,-0.091607809066773,0.950372576713562,-0.603222370147705,-4.29027795791626,-1.65871524810791,1.5974235534668,-0.789967775344849,0.296725928783417,-0.753137052059174,0.033022198826075,0.384177654981613
252,0.107867240905762,0.022127153351903,0.959863126277924,0.36575248837471,-3.23757457733154,-1.0566018819809,1.59430372714996,-0.790228307247162,0.29713836312294,-0.771852791309357,0.224689036607742,0.32799768447876
253,-0.031629756093025,-0.145818814635277,0.997438430786133,-1.19379281997681,-3.3005063533783,-0.666095554828644,1.59228193759918,-0.790382444858551,0.297527581453323,-0.775777637958527,0.330047488212585,0.298745840787888
254,0.063189029693604,0.007347873877734,0.949403882026672,1.44993007183075,-1.32055687904358,-0.673994302749634,1.59246683120728,-0.790857493877411,0.298086524009705,-0.72950690984726,0.25587859749794,0.316332787275314
255,-0.012134582735598,-0.246453613042831,1.03247451782227,-0.818397223949432,1.72954094409943,-0.426270186901093,1.59181356430054,-0.790089786052704,0.298826843500137,-0.808146476745606,0.24081090092659,0.321183949708939
256,0.18953187763691,-0.22550955414772,0.961558997631073,1.04219222068787,4.75038051605225,-0.91079717874527,1.59033012390137,-0.790153443813324,0.299224466085434,-0.805220484733581,0.249788641929626,0.301436215639114
257,0.149836584925652,-0.435695737600327,1.00594830513,1.73128414154053,4.14864683151245,-1.25379490852356,1.59115791320801,-0.790726602077484,0.299804776906967,-0.711143493652344,0.074867457151413,0.323398977518082
258,0.113044336438179,-0.489412248134613,0.952261507511139,1.85142433643341,4.8330192565918,-1.46246719360352,1.58894121646881,-0.791009664535522,0.29756897687912,-0.693928062915802,0.130004689097404,0.282775074243546
259,0.098481111228466,-0.219833180308342,0.979787409305572,2.06646466255188,2.6390585899353,-1.54013681411743,1.5864691734314,-0.791273176670074,0.297721564769745,-0.671736776828766,0.201741605997086,0.23607662320137
260,0.286848843097687,-0.052646350115538,0.995610892772675,2.02931427955627,0.035195890814066,-1.29623436927795,1.58721959590912,-0.791966617107391,0.298098981380463,-0.563780009746552,0.042922291904688,0.252564132213593
261,0.2023014575243,-0.070380732417107,0.987019717693329,0.272184193134308,0.197666570544243,-0.849300146102905,1.58573472499847,-0.792066514492035,0.296834409236908,-0.568700551986694,0.068083181977272,0.233255907893181
262,0.090160213410854,-0.066959843039513,0.997518837451935,-1.99831485748291,1.36599373817444,-1.39249110221863,1.58310675621033,-0.791489601135254,0.29684591293335,-0.658390879631043,0.18197500705719,0.19427427649498
263,-0.019346946850419,-0.535564303398132,1.04076516628265,0.464251816272736,0.186803668737412,-0.941220641136169,1.58250391483307,-0.791384398937225,0.2969771027565,-0.674061238765717,0.143879950046539,0.193084612488747
264,0.015961969271302,-0.342930644750595,0.988533794879913,-0.916836321353912,1.10168504714966,-0.699327051639557,1.58308827877045,-0.790414571762085,0.297202706336975,-0.747804939746857,0.029120003804565,0.219465583562851
265,0.009935329668224,-0.335141539573669,1.06074213981628,3.11184906959534,3.12937021255493,-0.423466801643372,1.58048295974731,-0.790674567222595,0.297868430614471,-0.716596007347107,0.132117465138435,0.183396741747856
266,0.222748979926109,-0.201819539070129,1.01559603214264,5.06470966339111,2.21099615097046,-0.740943193435669,1.57997632026672,-0.791538059711456,0.298142164945602,-0.579217612743378,0.065171875059605,0.183535754680634
267,0.109446115791798,-0.083146095275879,0.967633962631226,6.376633644104,3.31688904762268,0.123674020171165,1.57865965366364,-0.791924297809601,0.298351377248764,-0.49108549952507,0.053967278450728,0.172345951199532
268,0.087148681282997,-0.015107588842511,1.05423009395599,4.12399244308472,2.54842662811279,-0.67279064655304,1.57747411727905,-0.790894389152527,0.296457201242447,-0.536281883716583,0.049324385821819,0.167359963059425
269,0.286856323480606,-0.292148321866989,1.05426037311554,4.70968675613403,3.28448629379272,-0.840927004814148,1.57920455932617,-0.790885627269745,0.296813786029816,-0.458960771560669,-0.186789855360985,0.199434727430344
270,0.453534364700317,-0.208582699298859,1.01016545295715,5.11229419708252,1.53912401199341,-0.085983604192734,1.57597351074219,-0.790624439716339,0.296911895275116,-0.458404451608658,-0.049518343061209,0.159637793898582
271,0.236905410885811,-0.154264211654663,0.989403665065765,3.93128728866577,1.43496537208557,0.409769743680954,1.57362365722656,-0.791137039661408,0.293642431497574,-0.365339636802673,0.031646389514208,0.141684845089912
272,0.061574846506119,-0.150061845779419,1.02452206611633,5.12808656692505,0.506587028503418,-0.420177012681961,1.57400870323181,-0.791346848011017,0.293769299983978,-0.280542969703674,-0.094562239944935,0.158924296498299
273,0.059695530682802,-0.262204468250275,1.05299139022827,6.10240697860718,-0.262593388557434,0.014373999089003,1.57254815101624,-0.791714370250702,0.29376295208931,-0.190842136740685,-0.073593758046627,0.154733493924141
274,0.264455258846283,-0.303756266832352,1.02615427970886,3.32040190696716,-0.109926499426365,0.345772713422775,1.57085657119751,-0.791343092918396,0.294809967279434,-0.181810647249222,-0.022630583494902,0.150683209300041
275,0.267410516738892,-0.510804295539856,0.979717195034027,3.58718395233154,0.989630460739136,-0.343919962644577,1.56832754611969,-0.790877759456635,0.294819861650467,-0.199326664209366,0.103185534477234,0.132513657212257
276,0.066730655729771,-0.565994679927826,0.985426962375641,0.5681112408638,1.66120851039886,-0.861180484294891,1.56765019893646,-0.790270566940308,0.294991582632065,-0.22407853603363,0.055788576602936,0.13304977118969
277,0.317520886659622,-0.634683430194855,1.06410336494446,2.07620716094971,3.24560356140137,-0.371412396430969,1.56646072864532,-0.789721965789795,0.295111298561096,-0.240666002035141,0.029069727286697,0.129474982619286
278,0.45043271780014,-0.389930129051208,1.07744908332825,2.66527342796326,3.55096673965454,-2.06959676742554,1.56678473949432,-0.789771258831024,0.294063031673431,-0.193568140268326,-0.121091946959496,0.121610336005688
279,0.109974913299084,-0.188164785504341,1.04064238071442,4.4258770942688,3.77137017250061,-1.20330095291138,1.56568813323975,-0.789944171905518,0.294248133897781,-0.127709522843361,-0.157846763730049,0.109896637499332
280,0.047843679785729,0.015670960769057,0.99799382686615,3.87590408325195,4.33959341049194,-1.120041847229,1.56375336647034,-0.790283441543579,0.294384300708771,-0.03941884636879,-0.110370889306068,0.093220107257366
281,0.358078896999359,0.013511710800231,0.986951172351837,3.83834934234619,2.41643166542053,-2.17322611808777,1.5630556344986,-0.790081560611725,0.293788582086563,-0.00936427526176,-0.161790624260902,0.076163485646248
282,0.185839414596558,-0.321523398160934,1.09981846809387,3.88960552215576,0.107192978262901,-1.43671321868896,1.56169128417969,-0.790257215499878,0.293958276510239,0.057508543133736,-0.14757464826107,0.062366154044867
283,0.25788477063179,-0.285191386938095,1.00573003292084,2.45713186264038,-1.81618893146515,-1.68338882923126,1.56055784225464,-0.790181994438171,0.294205904006958,0.084439031779766,-0.151886954903603,0.046523910015822
284,0.103287883102894,-0.194288074970245,1.03383231163025,0.361202299594879,-0.52733302116394,-1.82373654842377,1.5593535900116,-0.789821982383728,0.293047577142715,0.079737558960915,-0.132824495434761,0.028063887730241
285,0.069479994475842,-0.471985757350922,1.06571400165558,1.90273749828339,-2.97916889190674,-2.9060275554657,1.55907905101776,-0.790604650974274,0.293378502130508,0.18042665719986,-0.22475029528141,0.000773285049945
286,0.414147973060608,-0.13567641377449,1.07651150226593,0.041429843753576,-2.27120971679687,-2.02495002746582,1.55761873722076,-0.789989411830902,0.293649673461914,0.122330404818058,-0.156742319464684,-0.021813670173287
287,0.262634187936783,-0.503831803798676,1.00344610214233,-0.396628826856613,1.12772607803345,-1.56134140491486,1.55572485923767,-0.788639724254608,0.293898433446884,-0.007291345857084,-0.049487370997667,-0.037492394447327
288,0.269842982292175,-0.154255032539368,0.983443260192871,-0.167791843414307,-0.205383583903313,-3.66389226913452,1.55553996562958,-0.788747906684876,0.290431886911392,0.014254695735872,-0.186184465885162,-0.078374110162258
289,-0.001290868036449,-0.10488136857748,0.964212536811829,-0.614452302455902,1.24589896202087,-2.25590753555298,1.55388224124908,-0.788583219051361,0.29044833779335,0.023174714297056,-0.092493951320648,-0.088780455291271
290,0.03283029794693,-0.080384500324726,1.00000846385956,2.3108639717102,3.24765658378601,-2.70404624938965,1.55335819721222,-0.790013492107391,0.290634959936142,0.201616421341896,-0.16383184492588,-0.110706277191639
291,0.0865733101964,0.009692131541669,1.01732623577118,2.99752449989319,1.40256989002228,-2.32583594322205,1.5517555475235,-0.789486229419708,0.287807464599609,0.174832627177238,-0.083925940096378,-0.122154831886292
292,0.100792691111565,-0.224739611148834,1.08702719211578,3.02309679985046,1.39147782325745,-2.53372311592102,1.55130708217621,-0.789816439151764,0.287904500961304,0.232234925031662,-0.220041617751122,-0.172149807214737
293,0.233021855354309,-0.224129930138588,1.1300995349884,2.0860710144043,1.00696444511414,-3.60905504226685,1.54960954189301,-0.789063096046448,0.287849873304367,0.194870606064796,-0.114145204424858,-0.184425055980682
294,1.05971777439117,-0.187303081154823,1.05957627296448,1.08303594589233,0.135466232895851,-2.46526265144348,1.5492285490036,-0.789863407611847,0.287436157464981,0.283645659685135,-0.237076997756958,-0.237001016736031
295,0.389345496892929,-0.270077973604202,0.964920401573181,-2.18073725700378,1.87710750102997,-2.47357082366943,1.54788780212402,-0.789100050926209,0.28757643699646,0.200120940804481,-0.204732939600944,-0.260578721761703
296,0.210976764559746,-0.57033383846283,0.996037065982819,-1.94845521450043,-0.667959868907928,-3.51760053634644,1.54665303230286,-0.788892686367035,0.287704557180405,0.170787587761879,-0.167387083172798,-0.281035542488098
297,0.072292700409889,-0.217349171638489,1.00477969646454,-1.37217533588409,-0.663820743560791,-2.01046919822693,1.54602777957916,-0.788978457450867,0.287996053695679,0.151878193020821,-0.264197647571564,-0.338771134614944
298,0.429367542266846,-0.043087609112263,1.05981159210205,-2.64663767814636,-0.845880091190338,-3.08918571472168,1.54487884044647,-0.788761794567108,0.285426825284958,0.125619605183601,-0.203443214297295,-0.350832581520081
299,0.297636896371841,-0.184884607791901,1.07193958759308,-1.42885398864746,-0.575634717941284,-2.28339862823486,1.54381263256073,-0.789240598678589,0.285483449697495,0.177588224411011,-0.148715138435364,-0.358264118432999
300,0.334418475627899,-0.19463312625885,1.0892573595047,1.36026525497437,-2.31087827682495,-2.03458690643311,1.54313230514526,-0.789494156837463,0.285751193761826,0.189385160803795,-0.219916746020317,-0.401469856500626
301,0.267161279916763,-0.226817205548286,1.04489624500275,1.98637092113495,-3.82817006111145,-2.85536551475525,1.54158318042755,-0.789334714412689,0.28499498963356,0.212317079305649,-0.053577691316605,-0.388912260532379
302,0.467216551303863,-0.063733503222466,1.0953676700592,2.04411363601685,-2.3710823059082,-1.54669272899628,1.54092359542847,-0.789622008800507,0.285404682159424,0.242439106106758,-0.119231335818768,-0.439141869544983
303,0.187099024653435,-0.367644935846329,1.01552939414978,2.06518268585205,-2.79840564727783,-2.63020253181458,1.54024934768677,-0.789833068847656,0.285843342542648,0.267524152994156,-0.175976544618607,-0.481980264186859
304,0.451956659555435,-0.423274397850037,1.00462663173676,-0.309812635183334,-1.0505713224411,-1.84546530246735,1.53874671459198,-0.788904964923858,0.282033383846283,0.188462808728218,-0.036043286323547,-0.481697678565979
305,0.383681029081345,-0.023778885602951,1.00425863265991,-2.23175430297852,-2.15659093856812,-1.89353334903717,1.53806734085083,-0.788928151130676,0.282280027866363,0.161160707473755,-0.116622313857079,-0.527609646320343
306,0.246559292078018,-0.150591179728508,1.04243326187134,-4.2875862121582,-1.88721966743469,-2.83223271369934,1.53692770004272,-0.789133727550507,0.282387554645538,0.168776571750641,-0.045612473040819,-0.532490491867065
307,0.3844333589077,-0.094580374658108,1.12319886684418,-2.47513175010681,-2.12805891036987,-2.46582245826721,1.53596258163452,-0.790143430233002,0.279736429452896,0.246739983558655,0.018303753808141,-0.536129415035248
308,0.115351565182209,-0.130925625562668,1.05449569225311,-2.00195550918579,-2.12388920783997,-1.9737457036972,1.53523743152618,-0.790156602859497,0.279944092035294,0.194637224078178,-0.05453234910965,-0.58219701051712
309,0.161405831575394,-0.088792778551579,1.01194739341736,-2.92524671554565,-1.00246453285217,-3.68862724304199,1.53404891490936,-0.789914548397064,0.280080556869507,0.133732542395592,0.005864371079952,-0.603018820285797
310,0.71176552772522,-0.207170709967613,1.00785624980927,-2.76039099693298,-0.842081010341644,-2.93497037887573,1.53286147117615,-0.789711177349091,0.280234098434448,0.079697988927364,0.046209111809731,-0.629765510559082
311,0.431496143341064,-0.532021641731262,1.24025344848633,-6.561598777771,-4.57631301879883,-1.59293282032013,1.53202080726624,-0.790625214576721,0.278339415788651,0.138312712311745,0.027690308168531,-0.656489551067352
312,0.081394627690315,-0.452850610017777,1.24945163726807,-3.22177219390869,0.782895028591156,-3.13795590400696,1.53088593482971,-0.790451347827911,0.278554975986481,0.051881618797779,0.058818951249123,-0.680281937122345
313,-0.039819899946451,-0.628353595733643,1.04659378528595,-2.96805047988892,0.70146507024765,-2.75710320472717,1.52934789657593,-0.790168046951294,0.278865873813629,-0.004011091776192,0.139279082417488,-0.683692157268524
314,0.024483671411872,-0.111476272344589,1.10322177410126,-2.09916543960571,1.25089025497437,-2.35384202003479,1.52888095378876,-0.791473865509033,0.278268754482269,0.087098926305771,0.003766304580495,-0.736662983894348
315,0.045417629182339,-0.033812787383795,1.09878635406494,-3.81033515930176,1.27056193351746,-2.64275741577148,1.52810215950012,-0.791994988918304,0.278864920139313,0.085153453052044,-0.060520827770233,-0.771348714828491
316,0.259226649999619,-0.39478525519371,1.13486874103546,-5.05808687210083,0.982207596302032,-0.12743753194809,1.52731287479401,-0.79229736328125,0.27954164147377,0.052713125944138,-0.118239037692547,-0.799536645412445
317,0.201760798692703,-0.275721877813339,1.10954940319061,-5.01583385467529,0.600916147232056,-1.93515813350678,1.52610969543457,-0.791983783245087,0.279479742050171,-0.060750439763069,-0.078595653176308,-0.8045973777771
318,0.376763343811035,-0.158046439290047,1.00825834274292,-6.34647083282471,-2.54951500892639,-3.05495691299438,1.5244551897049,-0.792711198329926,0.280143409967422,-0.039712756872177,0.051321409642696,-0.80644553899765
319,0.978974878787994,-0.605474233627319,1.08327555656433,-6.24869060516357,-2.41469287872314,-2.69270181655884,1.52382099628449,-0.792443215847015,0.281125336885452,-0.170602634549141,-0.007938708178699,-0.847983121871948
320,0.434182047843933,-0.132414609193802,1.05115401744843,-6.72081136703491,-5.69586896896362,-3.20221924781799,1.52319931983948,-0.793380558490753,0.282121926546097,-0.163363873958588,-0.030142810195685,-0.89320707321167
321,0.607625186443329,-0.032723058015108,1.03517997264862,-7.25450944900513,-3.18907284736633,-3.18492388725281,1.52180182933807,-0.792307496070862,0.283379673957825,-0.376134663820267,0.086418941617012,-0.917146563529968
322,0.338503062725067,-0.049330979585648,1.02916264533997,-5.68471956253052,-4.32619571685791,-3.38315892219543,1.52028453350067,-0.793226182460785,0.284346878528595,-0.350269138813019,0.192903995513916,-0.941864550113678
323,-0.058322038501501,-0.191186174750328,1.05205857753754,-4.84130144119263,-5.07491636276245,-4.80999422073364,1.5197696685791,-0.794235169887543,0.285537600517273,-0.32146891951561,0.154979646205902,-0.994634509086609
324,0.09216070920229,-0.021867780014873,0.999022364616394,-4.47806119918823,-2.13121581077576,-4.30789995193481,1.51844692230225,-0.79398512840271,0.283644199371338,-0.425898909568787,0.239045083522797,-1.03387105464935
325,0.183404624462128,0.122831203043461,0.972128868103027,-5.74015283584595,-2.22099852561951,-4.96832370758057,1.51811361312866,-0.794340252876282,0.284693747758865,-0.462432265281677,0.166312783956528,-1.08580577373505
326,0.103561289608479,-0.052493833005428,0.990736722946167,-5.46452903747559,-1.19500279426575,-4.88232469558716,1.51788854598999,-0.795320570468903,0.285725623369217,-0.442403107881546,0.089244984090328,-1.14047992229462
327,0.031182004138827,-0.036846216768026,1.00748312473297,-4.89111328125,0.681825935840607,-3.47463965415955,1.5170966386795,-0.795593917369843,0.283630400896072,-0.494538098573685,0.083721123635769,-1.1888439655304
328,0.143704608082771,0.053468983620405,1.02621960639954,-6.14031219482422,-2.57243609428406,-6.08129072189331,1.51497352123261,-0.795197367668152,0.284271478652954,-0.630472779273987,0.235220357775688,-1.23996567726135
329,0.062306571751833,-0.324851125478744,1.10981953144073,-12.6348991394043,-11.3498106002808,-7.16256523132324,1.51451504230499,-0.795259356498718,0.285090148448944,-0.722673356533051,0.216480940580368,-1.2971099615097
330,0.06000279635191,-0.179536327719688,1.11233198642731,-6.92098045349121,-3.82836937904358,-5.175217628479,1.51297569274902,-0.794845104217529,0.283181369304657,-0.879671156406403,0.343659043312073,-1.35705232620239
331,0.398412942886352,-0.449687063694,0.959295749664306,-6.81399726867676,-3.95103216171265,-5.88172626495361,1.51215839385986,-0.794438898563385,0.283908843994141,-1.00088214874268,0.365756332874298,-1.40483689308167
332,0.074439600110054,-0.123417779803276,1.03335380554199,-3.10995483398437,-1.70983576774597,-5.30443382263184,1.5112498998642,-0.79495245218277,0.284704089164734,-1.00530993938446,0.371496796607971,-1.46386468410492
333,0.0410241112113,0.04129234328866,0.948332607746124,-1.81566596031189,-2.4565327167511,-6.13634204864502,1.51137614250183,-0.794838488101959,0.285561561584473,-1.04103434085846,0.301694869995117,-1.50436151027679
334,0.002767540281639,0.174546301364899,1.03046083450317,1.54359698295593,-3.85175943374634,-6.90967130661011,1.50979971885681,-0.795007109642029,0.28430312871933,-1.03832077980042,0.374798119068146,-1.58114099502563
335,0.084452889859676,-0.040518559515476,0.978448271751404,2.85645580291748,0.389251112937927,-6.67461967468262,1.50823199748993,-0.795226991176605,0.284854292869568,-0.997823476791382,0.422620117664337,-1.65815722942352
336,0.191242411732674,-0.088111028075218,1.0532820224762,5.52953290939331,1.73175811767578,-5.36023616790772,1.50771677494049,-0.795484125614166,0.285508662462234,-0.932850658893585,0.365568310022354,-1.71212768554688
337,0.329841822385788,-0.134261712431908,1.01266849040985,5.18037033081055,3.89667344093323,-3.24510359764099,1.50529170036316,-0.795874834060669,0.282827109098434,-0.857600212097168,0.438324481248856,-1.79510593414307
338,0.087361268699169,-0.051172241568565,1.06154501438141,4.48252820968628,1.16884183883667,-5.37464332580566,1.5060487985611,-0.795204818248749,0.283404618501663,-0.869001924991608,0.300755381584167,-1.799556016922
339,0.075476154685021,-0.007598861586303,1.01008725166321,0.133040860295296,-0.074592478573322,-5.84138536453247,1.5023410320282,-0.795409321784973,0.283671259880066,-0.84534478187561,0.483488321304321,-1.91701602935791
340,0.273114591836929,-0.108440063893795,1.00780808925629,0.958581566810608,-0.911553800106049,-5.23182964324951,1.50297868251801,-0.795286476612091,0.280551344156265,-0.836047410964966,0.358065485954285,-1.93637430667877
341,0.300243407487869,-0.184558749198914,1.03389227390289,-1.8066508769989,-2.28990006446838,-5.36663770675659,1.50238072872162,-0.795088708400726,0.280848175287247,-0.848315238952637,0.33823761343956,-1.9775242805481
342,0.19789507985115,-0.12080854177475,1.01683855056763,-1.18634021282196,0.10559943318367,-5.06448078155518,1.50185692310333,-0.794963598251343,0.281180918216705,-0.8658087849617,0.316551089286804,-2.01739954948425
343,0.194795578718185,-0.175434201955795,1.01001560688019,-1.13914060592651,-0.29921767115593,-5.24263429641724,1.50138568878174,-0.794792234897614,0.281539052724838,-0.880326807498932,0.282668828964233,-2.05927205085754
344,0.426705747842789,-0.074505709111691,0.961659908294678,2.60157608985901,6.85526561737061,-2.6650402545929,1.49785697460175,-0.795133829116821,0.281537681818008,-0.861900806427002,0.438139647245407,-2.16660165786743
345,0.268225252628326,-0.658420503139496,1.00138831138611,2.36691522598267,-1.07767152786255,-5.16106557846069,1.49807798862457,-0.795820236206055,0.282020419836044,-0.739630222320556,0.307065427303314,-2.18743801116943
346,0.492665350437164,-0.318307906389236,1.09800791740417,4.50397300720215,8.40671443939209,-1.96420311927795,1.49703085422516,-0.79526287317276,0.282315105199814,-0.768716752529144,0.313312262296677,-2.2250075340271
347,0.089724972844124,-0.457413107156754,1.05881559848785,2.2679295539856,0.816504836082459,-3.85116076469421,1.49546563625336,-0.795436561107636,0.281175494194031,-0.717496156692505,0.32124125957489,-2.273756980896
348,0.00794630497694,-0.593251824378967,1.00228464603424,2.42779946327209,-0.887131810188293,-3.59252548217773,1.49586272239685,-0.79543536901474,0.281661301851273,-0.673610985279083,0.216426163911819,-2.28369784355164
349,0.051192585378885,-0.06018777191639,1.02979600429535,2.06949758529663,0.419592320919037,-3.91404438018799,1.49431729316711,-0.795592248439789,0.282008975744247,-0.630656242370606,0.252982765436172,-2.33241653442383
350,0.431449443101883,0.047255981713533,1.05078315734863,1.00735008716583,0.587930977344513,-3.40550446510315,1.49279344081879,-0.795687198638916,0.280841767787933,-0.600080490112305,0.286520749330521,-2.38472199440002
351,0.554257929325104,-0.010071136057377,1.01068043708801,1.51265704631805,-0.190749689936638,-2.54534029960632,1.49318373203278,-0.795598804950714,0.281294614076614,-0.581059515476227,0.177844345569611,-2.38731265068054
352,0.276568740606308,-0.416137307882309,1.15169203281403,-1.43522274494171,-1.19100701808929,-2.67738699913025,1.48960328102112,-0.795665621757507,0.281504273414612,-0.589499533176422,0.378598362207413,-2.46617889404297
353,0.027274135500193,-0.147352010011673,1.10509359836578,0.632012784481049,-0.537993550300598,-2.98478221893311,1.4873309135437,-0.795073866844177,0.281782120466232,-0.657178819179535,0.482578814029694,-2.50920534133911
354,0.10494751483202,-0.126846387982369,1.02412664890289,1.91924846172333,-1.3729749917984,-2.42824959754944,1.48729169368744,-0.793648481369019,0.281046718358994,-0.771709203720093,0.429602235555649,-2.50017428398132
355,0.168942227959633,-0.323790520429611,0.98473858833313,1.83035552501678,2.69701600074768,-1.63080191612244,1.48701155185699,-0.793695569038391,0.281718045473099,-0.716059744358063,0.340819925069809,-2.50903034210205
356,0.066327348351479,-0.322829753160477,1.04871761798859,3.87547421455383,4.0792441368103,-2.17899441719055,1.48480677604675,-0.793950855731964,0.282167285680771,-0.634786009788513,0.381008833646774,-2.55119323730469
357,0.236771583557129,-0.33875447511673,1.05540454387665,4.00796747207642,6.52539587020874,-1.95922303199768,1.4821480512619,-0.793574869632721,0.281807154417038,-0.615500390529633,0.459185868501663,-2.59856820106506
358,0.122726038098335,-0.125771105289459,1.0689172744751,6.55557775497437,4.2906231880188,-1.3025689125061,1.482461810112,-0.794581055641174,0.282707273960113,-0.421082705259323,0.231121048331261,-2.60456395149231
359,0.088778495788574,-0.000435403810116,1.04458463191986,6.11569452285767,6.09554815292358,-0.963009417057037,1.48159766197205,-0.794207155704498,0.283376425504684,-0.377205163240433,0.163941591978073,-2.60848808288574
360,0.139813289046288,0.051083259284496,1.11400127410889,4.43065500259399,9.04751396179199,0.605065524578095,1.48006641864777,-0.792986869812012,0.283300191164017,-0.435449749231339,0.149541467428207,-2.60596871376038
361,0.270859241485596,0.028107637539506,1.08442497253418,3.95272827148437,3.57368087768555,-0.94277024269104,1.47870969772339,-0.793125629425049,0.284045368432999,-0.353602051734924,0.093910709023476,-2.62144231796265
362,0.440721124410629,-0.27681228518486,0.989867031574249,1.83816242218018,1.15830385684967,-0.55048018693924,1.4780445098877,-0.793228566646576,0.28493744134903,-0.284276574850082,0.017314231023192,-2.62901759147644
363,0.15195269882679,-0.317318618297577,1.02010297775269,1.98428225517273,-0.019417257979512,0.033447533845902,1.47581541538239,-0.792576253414154,0.284464508295059,-0.306430131196976,0.111285597085953,-2.63521718978882
364,0.094448871910572,-0.442160099744797,1.00657653808594,0.614605486392975,-1.09945619106293,-0.512570261955261,1.47446513175964,-0.791864812374115,0.285185664892197,-0.343994319438934,0.130866974592209,-2.63668060302734
365,0.015827650204301,-0.053766455501318,0.999482095241547,0.708846688270569,-0.873587906360626,0.098882615566254,1.47440874576569,-0.791814863681793,0.286135464906693,-0.305888712406158,0.008587127551436,-2.63035011291504
366,0.182624667882919,0.067171834409237,1.00563859939575,0.883096754550934,-0.631152153015137,-0.78702974319458,1.47370195388794,-0.791793882846832,0.286988019943237,-0.269283652305603,-0.03197742626071,-2.63360118865967
367,0.159573674201965,-0.064408026635647,1.03023183345795,-1.47459578514099,11.5282583236694,1.66009724140167,1.4713271856308,-0.79105669260025,0.286628097295761,-0.314688146114349,0.097234301269055,-2.63796639442444
368,0.143067985773087,-0.316996067762375,1.06078612804413,2.28836226463318,1.19476783275604,-0.279206037521362,1.47134208679199,-0.79114031791687,0.287586897611618,-0.262584507465363,-0.081759668886662,-2.63483381271362
369,0.243599340319633,-0.242309868335724,1.02699601650238,2.88101601600647,0.56654167175293,0.56216311454773,1.47009992599487,-0.789947271347046,0.28835916519165,-0.34123358130455,-0.068104818463326,-2.63136553764343
370,0.085995972156525,-0.166214674711227,1.01913344860077,3.88399267196655,0.418262511491776,0.261685073375702,1.4695965051651,-0.788826942443848,0.286700069904327,-0.391402155160904,-0.126125648617744,-2.62562870979309
371,0.09576977789402,-0.177320048213005,0.964576125144958,2.66672301292419,1.21955871582031,0.147055745124817,1.46853148937225,-0.788338422775269,0.287403136491776,-0.359167277812958,-0.129897639155388,-2.62312173843384
372,0.086374796926975,-0.106218472123146,1.05789065361023,4.73718643188477,1.31554090976715,-0.115816913545132,1.46724998950958,-0.787728905677795,0.288084119558334,-0.333850234746933,-0.11923386156559,-2.62414240837097
373,0.132569536566734,-0.14236007630825,0.823246479034424,8.23212432861328,2.35595750808716,-1.31300640106201,1.4659698009491,-0.789469540119171,0.287285834550858,-0.044109933078289,-0.10272566229105,-2.62170958518982
374,0.103046022355556,0.084275640547276,0.889589846134186,5.63776159286499,1.00766372680664,0.727587997913361,1.46533870697021,-0.787742972373962,0.287837713956833,-0.128787964582443,-0.166629657149315,-2.62404990196228
375,0.089424483478069,0.015152785927057,0.937598466873169,5.07504415512085,0.637015581130981,0.321294695138931,1.46401333808899,-0.788039922714233,0.288212031126022,0.003373585175723,-0.135273918509483,-2.61213755607605
376,0.071620032191277,-0.211248368024826,1.23224639892578,0.111344031989574,1.46026921272278,1.19661521911621,1.46335482597351,-0.788175225257874,0.28863126039505,0.074186578392983,-0.187414899468422,-2.6028995513916
377,0.259977579116821,-0.580887377262116,1.16491615772247,3.10522103309631,0.151574313640594,1.03099739551544,1.46060514450073,-0.787466704845428,0.289475977420807,0.072635367512703,0.011483404785395,-2.58213782310486
378,0.051002480089665,-0.310111403465271,1.02226078510284,1.48674178123474,-0.939849138259888,0.958995401859283,1.46037709712982,-0.78689444065094,0.290334075689316,0.053287472575903,-0.104050040245056,-2.58490252494812
379,0.071261025965214,0.222938925027847,0.853952765464783,5.58807468414307,0.269735127687454,0.454682052135468,1.45953297615051,-0.786308944225311,0.291097521781921,0.054597362875939,-0.134280517697334,-2.58200907707214
380,-0.027762429788709,0.117532797157764,0.917370080947876,-0.410893261432648,-0.276290982961655,1.84553968906403,1.45704257488251,-0.786141574382782,0.292911678552628,0.10936126857996,0.045160122215748,-2.54299902915955
381,0.072957403957844,-0.249617278575897,0.982762157917023,1.80225038528442,1.07038044929504,1.20563423633575,1.45677971839905,-0.786284625530243,0.293694794178009,0.156304970383644,-0.087663866579533,-2.54316163063049
382,0.212541237473488,-0.090460807085037,1.04309773445129,0.207573592662811,0.678312242031097,1.30912256240845,1.45539367198944,-0.785569310188293,0.29425835609436,0.129805982112885,-0.062484346330166,-2.52889752388
383,0.179791450500488,-0.115913942456245,1.02076947689056,2.2780818939209,4.74463796615601,3.53898692131042,1.45347511768341,-0.784024357795715,0.294811874628067,0.022267960011959,0.01021080929786,-2.50621747970581
384,0.203492015600204,-0.217562019824982,1.08638763427734,3.93573212623596,0.618853509426117,1.41958904266357,1.45262944698334,-0.782801210880279,0.295508861541748,-0.035273671150208,-0.085347764194012,-2.50501132011414
385,0.165758028626442,-0.134070128202438,0.988982319831848,5.8455662727356,2.82486057281494,1.47652173042297,1.45251381397247,-0.783893942832947,0.296479165554047,0.167785957455635,-0.235460117459297,-2.50120425224304
386,0.084723815321922,-0.191031828522682,1.01014482975006,6.91893863677979,1.84990978240967,1.14219748973846,1.44980669021606,-0.783210694789887,0.297013312578201,0.232521027326584,-0.01105553470552,-2.44246387481689
387,0.029598383232951,-0.074877187609673,1.02680063247681,7.35829734802246,2.22807550430298,1.04282319545746,1.4480311870575,-0.782126605510712,0.295924216508865,0.237389400601387,0.039211671799421,-2.42323231697083
388,-0.010116156190634,-0.057885181158781,1.00644147396088,5.45143508911133,1.96568727493286,0.972203969955444,1.44821238517761,-0.78281706571579,0.29693341255188,0.391871452331543,-0.217625096440315,-2.45532488822937
389,0.077421121299267,-0.010865685530007,1.02651953697205,6.11887359619141,2.66199636459351,1.32372713088989,1.44710075855255,-0.783096194267273,0.297606915235519,0.514466345310211,-0.235419005155563,-2.43446588516235
390,0.097199819982052,-0.27505561709404,1.022500872612,1.58329331874847,1.99665427207947,0.535122871398926,1.44519734382629,-0.780297875404358,0.297039330005646,0.299736350774765,-0.175439596176147,-2.42873978614807
391,0.226184695959091,-0.239818543195724,0.994295358657837,0.386111438274384,1.21742784976959,0.963332056999206,1.44401168823242,-0.780250191688538,0.297678291797638,0.353176265954971,-0.186253443360329,-2.41196751594543
392,0.064377427101135,0.032815225422382,0.989232003688812,-1.55087888240814,0.031242378056049,0.281024903059006,1.44318115711212,-0.780249238014221,0.298391848802567,0.384312868118286,-0.262685209512711,-2.42096424102783
393,0.180992528796196,0.06798829883337,0.977529168128967,-0.363074004650116,0.004599918145686,0.219884619116783,1.44202029705048,-0.780132293701172,0.296953797340393,0.407114118337631,-0.239606484770775,-2.40447282791138
394,0.148927092552185,-0.210316494107246,0.989293217658997,-1.8401175737381,-0.744533002376556,-0.265252351760864,1.4411484003067,-0.780106067657471,0.297471910715103,0.42504146695137,-0.293249607086182,-2.41987943649292
395,0.299508452415466,-0.2470543384552,0.979671716690064,-0.149592652916908,-0.334751576185226,0.262698918581009,1.4399322271347,-0.779923439025879,0.297887116670609,0.436794638633728,-0.260434478521347,-2.40552067756653
396,0.043035946786404,-0.048001632094383,0.98612505197525,-0.294706672430038,-2.32914876937866,-0.038963321596384,1.43870735168457,-0.779802083969116,0.298276245594025,0.463023364543915,-0.223076090216637,-2.39040374755859
397,0.022626576945186,-0.019688932225108,0.933036983013153,-1.1759078502655,0.020707469433546,-0.549713909626007,1.43777596950531,-0.779810428619385,0.297912687063217,0.475416719913483,-0.255493819713593,-2.40516924858093
398,-0.019754251465201,-0.488200813531876,1.01730167865753,-0.803751587867737,0.523015737533569,0.030667599290609,1.43658566474915,-0.779636800289154,0.298209339380264,0.478370308876038,-0.242092326283455,-2.39750623703003
399,0.09520848095417,-0.364292800426483,0.948372781276703,-2.274338722229,1.295445561409,0.334658145904541,1.43537604808807,-0.779449045658112,0.298490732908249,0.46806201338768,-0.229021221399307,-2.38473391532898
400,0.020998833701015,-0.212211057543755,1.00805580615997,-2.34178733825684,0.761989951133728,0.271308690309525,1.4346866607666,-0.77948272228241,0.300076276063919,0.449916660785675,-0.371509164571762,-2.43167448043823
401,0.039190478622913,-0.203047573566437,0.961908042430878,-3.08524918556213,1.5713746547699,0.560023546218872,1.43296825885773,-0.778962433338165,0.300301492214203,0.424205869436264,-0.197023794054985,-2.35706305503845
402,0.231385886669159,-0.099245302379131,1.06034779548645,-3.93422269821167,1.3024777173996,-0.222369611263275,1.43168151378632,-0.778609275817871,0.300621896982193,0.371703565120697,-0.19933471083641,-2.35143804550171
403,0.229835256934166,-0.082473076879978,0.956925928592682,-4.80326890945435,0.194720357656479,0.103915669023991,1.4311820268631,-0.779282331466675,0.297733247280121,0.392168432474136,-0.339927494525909,-2.39295125007629
404,0.176340773701668,-0.050114076584578,0.993153750896454,-3.71918964385986,0.432432144880295,0.465819805860519,1.42990863323212,-0.77890807390213,0.297838062047958,0.337283968925476,-0.300437390804291,-2.37359809875488
405,0.496667683124542,-0.346998989582062,0.988632678985596,-2.58058190345764,0.96356338262558,0.544284880161285,1.4286447763443,-0.778598248958588,0.297926634550095,0.292396932840347,-0.269840389490128,-2.35999441146851
406,0.372739255428314,-0.42098742723465,1.23721373081207,-4.48037338256836,-2.70750093460083,-0.062849782407284,1.42738401889801,-0.778329849243164,0.296405524015427,0.257696032524109,-0.227732047438622,-2.34270000457764
407,0.531832575798035,-0.398451745510101,1.31328821182251,-2.25397181510925,-2.81703853607178,2.60843062400818,1.42606806755066,-0.778147220611572,0.296589225530624,0.243586644530296,-0.175569340586662,-2.31977772712708
408,0.19607412815094,-0.862760901451111,1.26651382446289,-0.807548940181732,1.08552408218384,0.167717486619949,1.42535150051117,-0.778148829936981,0.297246158123016,0.220895871520042,-0.283121854066849,-2.34796237945557
409,0.096934616565704,-0.709630012512207,1.07382583618164,1.32357954978943,2.68540453910828,0.113463886082172,1.42389452457428,-0.778083980083466,0.297906875610352,0.262950927019119,-0.191905781626701,-2.30470085144043
410,0.185028120875359,-0.359947770833969,0.997225105762482,0.052986148744822,1.2440892457962,0.431920617818832,1.42231750488281,-0.777881801128387,0.299675405025482,0.268043905496597,-0.123496472835541,-2.27099394798279
411,0.01019961386919,-0.31340166926384,1.01882469654083,0.772769927978516,1.67738401889801,0.735029995441437,1.42160367965698,-0.777984380722046,0.300755709409714,0.268922597169876,-0.278198540210724,-2.3100917339325
412,0.469296038150787,-0.58235239982605,0.971228063106537,-2.44428944587708,0.330886274576187,-0.531997859477997,1.42061042785645,-0.777833461761475,0.301718592643738,0.241153925657272,-0.327005714178085,-2.32540559768677
413,0.182531654834747,-0.229886546730995,1.02222335338593,-2.94927597045898,0.637753784656525,0.079022161662579,1.41899073123932,-0.777432143688202,0.302640080451965,0.194145306944847,-0.232355788350105,-2.2979371547699
414,0.266528129577637,-0.263421505689621,0.953408658504486,-5.73454523086548,-0.217827290296555,0.374517768621445,1.41825687885284,-0.777178943157196,0.303665548563004,0.119007833302021,-0.351444363594055,-2.33251023292541
415,0.178180873394012,-0.441902250051498,1.01974821090698,-4.43889808654785,-0.404697418212891,0.380780249834061,1.4169043302536,-0.776829540729523,0.304520577192307,0.047605689615011,-0.303702384233475,-2.32063436508179
416,0.1195258051157,-0.259948790073395,0.943720579147339,-4.99588251113892,-3.00567841529846,-0.037634488195181,1.41469991207123,-0.776273190975189,0.303097248077393,-0.015410903841257,-0.089500285685063,-2.26970648765564
417,0.032405726611614,-0.059990484267473,1.02696216106415,-1.96632730960846,-2.1390528678894,-0.309586405754089,1.41404485702515,-0.776241362094879,0.303965121507645,-0.049216084182263,-0.179915592074394,-2.29890370368958
418,0.002337395446375,-0.040238790214062,0.977453529834747,-2.28034663200378,-2.54115986824036,-0.715227246284485,1.41260457038879,-0.776007235050201,0.304634600877762,-0.072254702448845,-0.119504891335964,-2.29598641395569
419,0.057160295546055,-0.042767215520144,0.992937505245209,-0.563855707645416,-0.068895548582077,0.173436611890793,1.41125118732452,-0.775972664356232,0.305309325456619,-0.072860568761826,-0.090483091771603,-2.28771376609802
420,-0.011980430223048,-0.267512530088425,0.971920669078827,-0.475333631038666,0.720125198364258,-0.239546358585358,1.4109400510788,-0.775980353355408,0.302959978580475,-0.066508457064629,-0.224729433655739,-2.30919814109802
421,0.106919623911381,-0.133434608578682,0.972502291202545,0.245388731360435,1.90516555309296,-0.600776433944702,1.40918099880219,-0.775875329971314,0.303378224372864,-0.055818196386099,-0.147905394434929,-2.29813981056213
422,0.034568566828966,-0.116551578044891,0.911628246307373,-0.653873801231384,2.82285165786743,0.392276346683502,1.40788304805756,-0.775796055793762,0.303822934627533,-0.051657516509295,-0.165099516510963,-2.29444766044617
423,0.0393948815763,0.068779289722443,0.96701592206955,-0.450517147779465,2.28266191482544,-0.179344311356545,1.40735983848572,-0.777155578136444,0.30503922700882,0.096001088619232,-0.253221660852432,-2.28672170639038
424,0.006925145164132,-0.178546503186226,0.938239216804504,-0.384943038225174,3.17957353591919,0.52879136800766,1.40536463260651,-0.776284277439117,0.305385112762451,0.008754373528063,-0.192635804414749,-2.28290390968323
425,0.093627251684666,-0.086377337574959,0.927335560321808,-2.4321231842041,1.50988745689392,-0.003547433530912,1.40396451950073,-0.776008725166321,0.305727928876877,-0.02657338231802,-0.201418623328209,-2.28300595283508
426,0.124184668064117,-0.00467430986464,0.950859189033508,-3.23875975608826,2.0449857711792,1.08524560928345,1.40374314785004,-0.775854289531708,0.305480688810348,-0.076258763670921,-0.344841450452805,-2.29433417320251
427,0.301028072834015,-0.409143298864365,0.983121037483215,-5.05856943130493,0.713801026344299,0.249475315213203,1.40229403972626,-0.775439441204071,0.305698156356811,-0.144257575273514,-0.323326647281647,-2.28918075561523
428,0.056303013116121,-0.128883540630341,0.954878568649292,-4.18862581253052,1.32182621955872,0.881669640541077,1.40212178230286,-0.775236785411835,0.306031495332718,-0.211287781596184,-0.446376830339432,-2.29310154914856
429,0.033311109989882,-0.415405482053757,0.98377513885498,-2.10961151123047,-0.814432740211487,0.357017338275909,1.39946138858795,-0.775646388530731,0.306101948022842,-0.171256080269814,-0.250215768814087,-2.26443958282471
430,0.048199027776718,-0.387192517518997,0.930859684944153,3.39142870903015,5.79916667938232,1.85837435722351,1.39812862873077,-0.775762557983398,0.30483666062355,-0.152523741126061,-0.235802501440048,-2.25169205665588
431,0.114828050136566,-0.562345325946808,0.936881959438324,2.52928161621094,-3.13096928596497,0.034029550850391,1.39796853065491,-0.776634991168976,0.304989844560623,-0.035063873976469,-0.32079803943634,-2.23403072357178
432,0.123448312282562,-0.238905385136604,0.996808290481567,0.969994246959686,-0.585595011711121,0.66121107339859,1.3977062702179,-0.775961875915527,0.305119901895523,-0.088659085333347,-0.398080587387085,-2.24172186851501
433,0.030946172773838,0.060125637799502,0.912862479686737,4.17332458496094,-3.85398650169373,-0.349429577589035,1.39609372615814,-0.775466024875641,0.303006380796432,-0.12334543466568,-0.322961688041687,-2.24539828300476
434,0.174237951636314,-0.603968858718872,0.879231154918671,0.289656639099121,1.20415985584259,1.0008327960968,1.39319026470184,-0.774576663970947,0.302616029977798,-0.17246076464653,-0.147545322775841,-2.24727320671082
435,0.018265640363097,-0.295715987682343,0.990447282791138,-2.25050354003906,1.02446711063385,1.09968030452728,1.39327239990234,-0.774510741233826,0.302482187747955,-0.182805821299553,-0.284027516841888,-2.23613548278809
436,0.050249051302672,-0.309928983449936,1.00186908245087,-1.8256288766861,2.29481291770935,0.770519077777862,1.39221405982971,-0.77572363615036,0.302331537008285,-0.054784875363112,-0.277406185865402,-2.2073495388031
437,0.155796810984611,-0.070781297981739,1.03620946407318,-1.2382105588913,2.26848268508911,0.612922132015228,1.39240062236786,-0.775651454925537,0.302147567272186,-0.082349047064781,-0.429970741271973,-2.20054793357849
438,0.115310855209827,-0.464705556631088,1.04815471172333,-0.314315170049667,4.03359079360962,0.971135020256042,1.39123034477234,-0.775607943534851,0.301855683326721,-0.08913092315197,-0.451049596071243,-2.19293236732483
439,0.302593141794205,-0.391818195581436,1.02091288566589,0.468926727771759,3.21697950363159,1.53135287761688,1.38920068740845,-0.775621950626373,0.300659954547882,-0.077025197446346,-0.386571139097214,-2.18253040313721
440,0.278068512678146,-0.115355186164379,1.07581150531769,1.70905363559723,1.03959357738495,1.79423129558563,1.38830983638763,-0.775063514709473,0.300431221723557,-0.119901239871979,-0.441238194704056,-2.17045998573303
441,0.398251503705978,-0.640047669410706,1.06723606586456,1.12354457378387,-2.12707376480103,1.21118915081024,1.3849790096283,-0.773671507835388,0.300033003091812,-0.226360961794853,-0.242740213871002,-2.17848324775696
442,0.230534881353378,-0.265178918838501,0.97295868396759,3.85318040847778,-1.30684995651245,2.12134599685669,1.38498115539551,-0.773793995380402,0.300070524215698,-0.167787685990334,-0.3364597260952,-2.1544303894043
443,0.074419565498829,-0.167057648301125,0.961305439472198,2.29797983169556,0.615691602230072,2.50484824180603,1.38515782356262,-0.773970305919647,0.300008773803711,-0.109070606529713,-0.443388015031815,-2.12366366386414
444,0.166218459606171,-0.367029279470444,1.19380617141724,3.5957145690918,3.79935336112976,3.9208881855011,1.38468205928803,-0.774265706539154,0.299885809421539,-0.027824414893985,-0.502928078174591,-2.08417415618896
445,0.078622423112393,-1.0764445066452,1.19427621364594,7.70459413528442,1.80248200893402,2.30228614807129,1.38489818572998,-0.774675786495209,0.299941331148148,0.087387561798096,-0.620249748229981,-2.04520392417908
446,0.031284630298615,-0.758817195892334,1.05609166622162,4.78910970687866,1.05845522880554,2.4237973690033,1.38183116912842,-0.773583590984345,0.298706263303757,0.045926928520203,-0.434787452220917,-2.04277396202087
447,0.069617442786694,-0.506012082099915,1.04873979091644,4.37147760391235,0.184457436203957,3.29211497306824,1.38041543960571,-0.773693680763245,0.298817723989487,0.133424565196037,-0.398087382316589,-2.00895929336548
448,0.082274988293648,-0.026133917272091,1.01498281955719,1.6028151512146,-2.89060974121094,2.63169860839844,1.38021123409271,-0.773807764053345,0.29910272359848,0.179810509085655,-0.463127195835113,-1.97695326805115
449,0.557939767837524,0.018728939816356,1.00107479095459,1.00634527206421,-1.39009964466095,2.73059678077698,1.3779000043869,-0.773108720779419,0.297734469175339,0.139803156256676,-0.316881656646729,-1.96056985855103
450,0.247394785284996,0.013053274713457,0.986166954040527,1.0439658164978,-1.72366666793823,2.58282732963562,1.37692379951477,-0.77241313457489,0.29787740111351,0.097914025187492,-0.324755787849426,-1.94635188579559
451,-0.010202108882368,-0.20141139626503,0.968597948551178,0.909025728702545,-0.698049962520599,3.45332622528076,1.3761670589447,-0.772414326667785,0.298006504774094,0.129682257771492,-0.337179064750671,-1.90914750099182
452,0.021258087828755,-0.265983253717422,0.991229712963104,-0.857280910015106,-1.07168793678284,2.35932374000549,1.37592566013336,-0.771721720695496,0.298203200101852,0.073961563408375,-0.429844945669174,-1.89289736747742
453,0.169707372784615,-0.305801391601562,1.16118967533112,-2.39430594444275,7.68603944778442,3.90075469017029,1.37413311004639,-0.771597266197205,0.297468394041061,0.086772136390209,-0.345429301261902,-1.85774481296539
454,0.214832052588463,-0.128639340400696,1.1465460062027,3.39104890823364,-0.062144439667463,2.28739356994629,1.3726167678833,-0.771098494529724,0.297590404748917,0.075103007256985,-0.309028476476669,-1.83447051048279
455,0.177243947982788,-0.163745179772377,1.02396857738495,3.42546772956848,-1.9989424943924,2.98693704605103,1.37314128875732,-0.771318852901459,0.298127174377441,0.153917863965035,-0.462237507104874,-1.80901837348938
456,0.151794582605362,-0.183318883180618,0.997908115386963,5.8441219329834,0.554341077804565,3.49910426139832,1.37255871295929,-0.771605253219605,0.298797696828842,0.254083335399628,-0.474048614501953,-1.76684653759003
457,0.100964903831482,-0.15977455675602,1.03592658042908,4.8771858215332,-1.23785507678986,1.6309255361557,1.37001979351044,-0.771763622760773,0.299048334360123,0.346844732761383,-0.264265358448029,-1.71997117996216
458,0.029522377997637,-0.043384842574597,0.773239493370056,12.9559297561646,-0.793596506118774,3.35458207130432,1.36991584300995,-0.772250950336456,0.299527555704117,0.473389834165573,-0.362444251775742,-1.70080649852753
459,0.03197293356061,-0.243658497929573,0.834937810897827,1.01407051086426,-0.832024216651917,2.26149344444275,1.36983692646027,-0.773022890090942,0.29812291264534,0.604480087757111,-0.442268490791321,-1.67166650295258
460,0.266817003488541,-0.38176891207695,0.900223135948181,4.92091703414917,3.75307703018188,4.24698162078857,1.36855173110962,-0.772980511188507,0.298054426908493,0.621727764606476,-0.391216188669205,-1.63958859443665
461,0.265539824962616,-0.698795914649963,0.914814889431,-4.69964361190796,-1.40410137176514,2.30921745300293,1.36659443378448,-0.772571086883545,0.297822773456573,0.56148374080658,-0.252230763435364,-1.59979915618896
462,0.241244003176689,-0.562508106231689,1.07402551174164,-7.58665037155151,-1.93485713005066,2.15778708457947,1.36597514152527,-0.772103428840637,0.298846423625946,0.442991852760315,-0.320999830961227,-1.60337710380554
463,0.092553310096264,-0.614656865596771,1.06783223152161,-9.28627395629883,-2.32391238212585,2.23024535179138,1.36541473865509,-0.771604716777802,0.298832297325134,0.298813998699188,-0.37227275967598,-1.60418093204498
464,0.156651526689529,-0.667075872421265,1.09643363952637,-10.0728120803833,1.45406937599182,2.97996473312378,1.36401760578156,-0.770963251590729,0.298756450414658,0.153193607926369,-0.291279524564743,-1.57116889953613
465,0.318427175283432,-0.506806552410126,1.08407056331635,-7.19981336593628,-2.71436333656311,2.02566528320312,1.36425387859344,-0.772080421447754,0.299044817686081,0.190700799226761,-0.417983293533325,-1.56682884693146
466,0.166602581739426,-0.329594403505325,1.02467846870422,-1.94805121421814,-2.65427207946777,1.59144401550293,1.3633314371109,-0.771939635276794,0.298504292964935,0.140448078513145,-0.366413176059723,-1.54175245761871
467,0.079571284353733,-0.670451998710632,0.97665548324585,1.75537526607513,-3.76469945907593,1.19275760650635,1.36146306991577,-0.771916568279266,0.298548251390457,0.144845321774483,-0.167369827628136,-1.50228667259216
468,0.132825031876564,-0.943417549133301,1.01750469207764,2.35268378257751,-5.03116464614868,1.15992677211761,1.36047291755676,-0.772038578987122,0.298667818307877,0.177310109138489,-0.112762644886971,-1.48662042617798
469,0.228749886155128,-0.713422954082489,1.0348345041275,5.00782299041748,-3.00600004196167,1.14704847335815,1.36014306545258,-0.772363424301147,0.297640204429626,0.242329150438309,-0.150235518813133,-1.48798429965973
470,0.448566824197769,-0.142668381333351,1.07617568969727,3.30734992027283,-2.35165405273437,1.79320096969605,1.35983180999756,-0.772536814212799,0.297831684350967,0.293496400117874,-0.207376182079315,-1.48082780838013
471,0.323190748691559,-0.274577021598816,1.07796001434326,1.01652920246124,-0.225337877869606,2.25915431976318,1.35805535316467,-0.77244484424591,0.297915875911713,0.309011191129684,-0.053954195231199,-1.44422006607056
472,0.444679170846939,-0.229827553033829,1.03171002864838,-1.04236030578613,-0.465344369411469,1.6916161775589,1.35773181915283,-0.77169805765152,0.29854416847229,0.209247916936874,-0.144281536340714,-1.44241642951965
473,0.368583351373672,-0.387707263231277,0.994809091091156,-3.8538510799408,0.751336872577667,1.52882695198059,1.35650610923767,-0.771329581737518,0.298792064189911,0.151954278349876,-0.098021663725376,-1.42377042770386
474,0.63929158449173,-0.451242029666901,0.991680681705475,-3.32310485839844,1.48883545398712,1.38353145122528,1.3563152551651,-0.771929800510407,0.29920306801796,0.170401513576508,-0.202955961227417,-1.42072427272797
475,0.224538803100586,-0.85655677318573,0.998397529125214,-2.71373987197876,0.049401137977839,1.94019544124603,1.35559618473053,-0.771718084812164,0.299516975879669,0.121969133615494,-0.224775671958923,-1.40325045585632
476,0.08205234259367,-0.950747847557068,1.04466331005096,-1.20255970954895,0.972752928733826,1.54273998737335,1.35435628890991,-0.771612167358398,0.298528283834457,0.092502757906914,-0.170619159936905,-1.37569499015808
477,0.098484992980957,-0.232189878821373,1.00829339027405,-0.416589766740799,-2.72919011116028,0.865820348262787,1.35340166091919,-0.771585404872894,0.298778176307678,0.083575576543808,-0.148702710866928,-1.36062562465668
478,0.451984256505966,-0.449443340301514,0.759746253490448,7.00855684280396,2.25908970832825,1.22913599014282,1.35315239429474,-0.771895587444305,0.299106448888779,0.132768899202347,-0.205299943685532,-1.3592392206192
479,0.301463276147842,-0.158756136894226,0.871134281158447,1.28986072540283,-5.16021823883057,0.362439513206482,1.35219669342041,-0.771934509277344,0.297392755746841,0.173959314823151,-0.143133193254471,-1.34715616703033
480,0.244867101311684,-0.557798564434052,1.04242706298828,2.19154143333435,-3.61287045478821,1.97716963291168,1.35013520717621,-0.771983921527862,0.297110319137573,0.197055637836456,0.059377606958151,-1.31948041915894
481,0.056584909558296,-0.951842188835144,1.08876097202301,-0.34513446688652,-3.27709293365479,1.9999703168869,1.34978151321411,-0.771957576274872,0.29707857966423,0.200004935264587,0.02036202698946,-1.30446314811707
482,0.18412709236145,-0.46280175447464,1.07201564311981,-0.299232572317123,-3.97285962104797,1.32600057125092,1.34893667697907,-0.771220684051514,0.29737713932991,0.114557035267353,0.061389848589897,-1.2816869020462
483,0.464450508356094,-0.352596253156662,1.0542004108429,-1.80142736434937,-5.45823240280151,-1.52126133441925,1.34873127937317,-0.771145284175873,0.297504872083664,0.099401295185089,0.011434421874583,-1.28416228294373
484,0.279564470052719,-0.219039231538773,0.996739268302918,-4.58831596374512,3.80650782585144,2.56463384628296,1.34862160682678,-0.772253632545471,0.297695904970169,0.191663533449173,-0.101256273686886,-1.28525841236115
485,0.147886291146278,-0.542840421199799,0.983507931232452,-0.957687795162201,4.36582040786743,1.99315702915192,1.34636545181274,-0.772137403488159,0.297681152820587,0.149423643946648,0.061988927423954,-1.25045120716095
486,0.012894184328616,-0.474156469106674,1.03568112850189,-1.97887110710144,2.30250954627991,1.77739381790161,1.3450676202774,-0.771998167037964,0.299661546945572,0.115718603134155,0.07802814245224,-1.22653913497925
487,-0.038332853466272,-0.346248090267181,1.03376269340515,0.061227023601532,1.01031148433685,1.40007305145264,1.3437397480011,-0.771969318389893,0.299826741218567,0.099217638373375,0.108318895101547,-1.20845627784729
488,0.119267970323563,-0.108256280422211,0.965812861919403,-0.982246339321136,-1.72409069538116,1.12148034572601,1.34342849254608,-0.771946370601654,0.30017164349556,0.084216751158238,0.029359232634306,-1.20044767856598
489,0.386546283960342,-0.024784723296762,1.18558549880981,-6.26490068435669,-2.35859656333923,1.54322874546051,1.34204566478729,-0.771555006504059,0.297445148229599,0.02683962136507,0.119262672960758,-1.1767805814743
490,0.135769441723824,-0.299175202846527,1.23310732841492,-1.21042692661285,-2.31756806373596,1.05214500427246,1.34120464324951,-0.771533071994782,0.297688066959381,-0.007316220086068,0.125605329871178,-1.16622650623322
491,0.343224138021469,-0.110833011567593,0.999577581882477,2.18551659584045,0.414401710033417,2.4513692855835,1.34151899814606,-0.772412478923798,0.298341929912567,0.090146780014038,-0.041786719113588,-1.16251003742218
492,0.237825497984886,0.029577929526568,1.01508224010468,2.28412628173828,0.098208792507649,1.73395025730133,1.34010362625122,-0.77256965637207,0.298898249864578,0.125518187880516,0.015849461778998,-1.13835418224335
493,0.111789435148239,-0.202104508876801,0.998597025871277,1.8832882642746,-0.398993462324142,1.43426537513733,1.33864605426788,-0.772713840007782,0.299351662397385,0.159701153635979,0.085488446056843,-1.11827266216278
494,0.148217156529427,-0.68839555978775,0.989765107631683,2.89677953720093,0.044673345983028,1.68376386165619,1.33854508399963,-0.772850513458252,0.299950897693634,0.190330594778061,-0.008757610805333,-1.10602998733521
495,0.221654385328293,-0.254403084516525,1.01068913936615,1.65428113937378,0.137340933084488,1.53226041793823,1.33711040019989,-0.772839725017548,0.301634013652802,0.200427055358887,0.066852010786533,-1.08687520027161
496,0.359049797058106,-0.262979447841644,1.0462167263031,-0.981697082519531,-1.24979853630066,3.15181350708008,1.33631634712219,-0.772725343704224,0.302214801311493,0.180446177721024,0.068147882819176,-1.05758416652679
497,0.22430793941021,-0.11787386983633,1.03499341011047,-2.42905616760254,-1.64343178272247,-0.179700642824173,1.33547246456146,-0.772567689418793,0.302815556526184,0.135242640972137,0.088150225579739,-1.0473130941391
498,0.025724291801453,-0.028902620077133,0.862474501132965,1.91985511779785,5.814133644104,2.58765864372253,1.33478581905365,-0.772425472736358,0.303449213504791,0.101236306130886,0.073007397353649,-1.04118692874908
499,-0.027627743780613,0.089107714593411,0.759060919284821,-1.27717757225037,-0.545390009880066,-0.265383034944534,1.333740234375,-0.77295333147049,0.303788065910339,0.132099151611328,0.087287254631519,-1.04006409645081
500,0.297079294919968,0.070653267204762,0.882282674312592,-5.63897609710693,-5.03940153121948,-0.07086692750454,1.33285164833069,-0.773045122623444,0.304078638553619,0.091363072395325,0.124347910284996,-1.03819727897644
501,0.061212323606014,0.000300638261251,0.940365076065064,-2.53150653839111,-3.41031694412231,-0.147656112909317,1.3310683965683,-0.773393034934998,0.304137200117111,0.078014902770519,0.259884476661682,-1.0403391122818
502,0.099671334028244,0.140304088592529,0.831668853759766,-5.47817611694336,-3.20610547065735,0.224702075123787,1.33162307739258,-0.773370683193207,0.302868604660034,0.030470099300146,0.132398515939713,-1.03973126411438
503,0.02454805187881,-0.6737961769104,1.00235915184021,-5.06617116928101,-2.04901027679443,-0.482921838760376,1.33053553104401,-0.774475157260895,0.302683234214783,0.078453503549099,0.153584867715836,-1.05526149272919
504,0.096396423876286,-0.462459266185761,1.04252099990845,-4.85879755020142,8.032639503479,0.958510398864746,1.32992827892303,-0.774031460285187,0.302520841360092,-0.04693703353405,0.128064170479775,-1.04817926883698
505,0.101217813789845,-0.377532243728638,1.0915983915329,-4.79644012451172,0.621022164821625,-0.926829397678375,1.32707512378693,-0.77509605884552,0.301794052124023,-0.002426412655041,0.292017221450806,-1.06196844577789
506,0.17651429772377,-0.306372910737991,0.993127048015594,-2.79354572296143,1.02022647857666,0.134137541055679,1.32731151580811,-0.774845540523529,0.301835656166077,-0.088068574666977,0.161789864301682,-1.05721974372864
507,-0.034380823373795,-0.144137531518936,1.04029107093811,-4.20045185089111,1.79350638389587,-0.583002150058746,1.32601809501648,-0.774606227874756,0.301740974187851,-0.16204497218132,0.19787734746933,-1.05464613437653
508,0.088885761797428,-0.069088511168957,1.01704573631287,-1.9017550945282,4.53709363937378,-0.631510078907013,1.32486534118652,-0.774398744106293,0.301680564880371,-0.222196474671364,0.193491160869598,-1.05520296096802
509,0.172298684716225,0.048098180443049,1.02569556236267,1.01343619823456,6.13323593139648,0.353196650743484,1.32540321350098,-0.774230718612671,0.299430638551712,-0.256420373916626,0.004686763510108,-1.05501258373261
510,-0.032189752906561,-0.089755460619927,1.11435222625732,-1.44185900688171,5.69929790496826,-0.330548942089081,1.32351922988892,-0.774188339710236,0.299306362867355,-0.27680715918541,0.05438457429409,-1.05159378051758
511,0.205958694219589,-0.371485561132431,0.99008172750473,1.09242904186249,2.7014319896698,-0.476475417613983,1.32128143310547,-0.774923741817474,0.299227774143219,-0.199319839477539,0.12135736644268,-1.07251882553101
512,0.201015129685402,-0.53868705034256,1.02173388004303,1.39195477962494,2.00204348564148,-0.046952728182078,1.32164585590363,-0.774989664554596,0.2975734770298,-0.194030255079269,-0.021460134536028,-1.06824195384979
513,0.481189519166946,-0.170225888490677,0.971297919750214,1.34192025661469,1.65817153453827,-0.524969220161438,1.31845819950104,-0.775090157985687,0.297366559505463,-0.176800161600113,0.171769812703133,-1.08525276184082
514,0.124140024185181,-0.234533920884132,0.99473375082016,1.46636414527893,0.371351987123489,0.41880738735199,1.31873512268066,-0.775149405002594,0.297445267438889,-0.165713593363762,0.037278313189745,-1.07324397563934
515,-0.01653809659183,-0.295921057462692,1.04341650009155,1.52862334251404,1.41333270072937,0.297510951757431,1.31811463832855,-0.775291621685028,0.296917289495468,-0.147076979279518,-0.010522863827646,-1.0675094127655
516,0.313442021608353,-0.176008716225624,1.07718133926392,-0.267566174268723,1.48274612426758,0.418103396892548,1.31586873531342,-0.775245547294617,0.296755969524384,-0.162790477275848,0.084774769842625,-1.07286739349365
517,0.253120213747025,-0.164261683821678,1.08059906959534,1.93187713623047,1.70922338962555,0.485254049301147,1.3144987821579,-0.775306701660156,0.296721339225769,-0.153890341520309,0.091554760932922,-1.06985116004944
518,0.272952795028686,-0.699220597743988,1.04521310329437,0.200070664286613,1.21813273429871,0.819417297840118,1.31394553184509,-0.775311589241028,0.296844094991684,-0.155299544334412,0.022892829030752,-1.05594098567963
519,0.212622046470642,-0.888827085494995,1.01556646823883,2.15663886070251,3.32609343528748,0.355658292770386,1.31184697151184,-0.775335967540741,0.296224772930145,-0.14608359336853,0.084184944629669,-1.06148886680603
520,0.172088295221329,-0.605318009853363,1.00402247905731,1.55213928222656,3.93125629425049,0.841250479221344,1.31238436698914,-0.775396823883056,0.296466708183289,-0.13170063495636,-0.104817301034927,-1.03880023956299
521,0.553027331829071,-0.543371558189392,1.00393903255463,2.49289131164551,3.79368543624878,0.292897492647171,1.31205594539642,-0.77547562122345,0.296622008085251,-0.106589682400227,-0.204695016145706,-1.02707707881928
522,0.295604586601257,-0.633657038211823,0.986311972141266,2.37336874008179,2.39687561988831,0.072842203080654,1.30973446369171,-0.776395380496979,0.296118050813675,0.00575285917148,-0.123624615371227,-1.04563164710999
523,0.18038210272789,-0.005275099072605,1.03260576725006,2.77100539207458,1.44075047969818,1.2658463716507,1.30746746063232,-0.776492357254028,0.296091288328171,0.028105625882745,-0.029719451442361,-1.04570960998535
524,0.435690134763718,-0.517664074897766,1.07685542106628,2.29803133010864,0.427232027053833,1.3104385137558,1.30857944488525,-0.776617825031281,0.296420246362686,0.044709198176861,-0.233387410640716,-1.01691794395447
525,0.070798970758915,-0.441591292619705,1.03437554836273,0.509963095188141,1.76562750339508,0.911252796649933,1.30612313747406,-0.776633620262146,0.297330141067505,0.038907863199711,-0.106948919594288,-1.01668012142181
526,0.376383095979691,-0.341406583786011,1.04723596572876,-1.15556502342224,0.871010303497314,1.50972700119019,1.30468058586121,-0.776649057865143,0.297556191682816,0.024150058627129,-0.079352892935276,-1.01053965091705
527,0.240153104066849,-0.539229989051819,1.03246855735779,-1.77252590656281,1.44520998001099,1.30881893634796,1.30486977100372,-0.77654504776001,0.297976046800613,-0.018329801037908,-0.208660036325455,-0.98776376247406
528,0.116855584084988,-0.280178040266037,1.06248235702515,-3.62403535842895,0.576007425785065,1.17813968658447,1.30258798599243,-0.776412725448608,0.298207104206085,-0.063802130520344,-0.096697315573692,-0.981423318386078
529,0.173454746603966,-0.052635479718447,0.954682767391205,-0.824109137058258,2.07221746444702,1.28976118564606,1.30276739597321,-0.776273787021637,0.299616068601608,-0.104061409831047,-0.23455810546875,-0.96476286649704
530,0.684437870979309,-0.290314137935638,0.963118374347687,-1.50155055522919,0.732653141021729,1.2821786403656,1.30132102966309,-0.776878893375397,0.299964606761932,-0.0597421862185,-0.212672010064125,-0.954940557479858
531,0.808753609657288,-0.886855900287628,1.1719685792923,-5.35522508621216,-1.73814427852631,0.876875817775726,1.29914224147797,-0.776809513568878,0.300257116556168,-0.099305890500546,-0.11133436113596,-0.951161623001099
532,0.213144436478615,-0.40764930844307,1.21704232692719,0.711498737335205,-0.271299511194229,0.626678884029388,1.2983056306839,-0.775858759880066,0.302744328975677,-0.219638988375664,-0.132815673947334,-0.946418702602386
533,0.264060705900192,-0.226007878780365,0.991068005561829,2.25676441192627,0.738430917263031,1.64853250980377,1.29804193973541,-0.775846004486084,0.303589433431625,-0.208483085036278,-0.185015305876732,-0.940123319625854
534,0.078189976513386,-0.119384624063969,0.997275292873383,1.18567335605621,2.82068920135498,1.82694959640503,1.29741811752319,-0.77601969242096,0.304410666227341,-0.167666956782341,-0.241801977157593,-0.921071231365204
535,-0.023580150678754,0.062971420586109,1.01743996143341,1.59215974807739,1.96568620204926,0.758261919021606,1.29454910755157,-0.776748895645142,0.303307950496674,-0.079421699047089,-0.094392649829388,-0.920845329761505
536,0.081277549266815,0.11570979654789,0.990955770015717,1.79726338386536,1.26918041706085,1.31310403347015,1.29568290710449,-0.77686470746994,0.304192960262299,-0.058526486158371,-0.313437193632126,-0.894500195980072
537,0.034479223191738,-0.509854853153229,1.01524031162262,1.00699889659882,-0.564610660076141,0.629446983337402,1.29426038265228,-0.776890456676483,0.304856508970261,-0.04925549402833,-0.278460770845413,-0.889975547790527
538,0.041529797017574,-0.267013102769852,0.967661559581757,-1.52160620689392,-0.980415225028992,1.19451141357422,1.29143488407135,-0.777360141277313,0.303904414176941,-0.013637061230838,-0.100140519440174,-0.887291610240936
539,0.064037822186947,-0.191747978329659,0.989299118518829,-3.18660163879395,-3.51480031013489,0.737752199172974,1.29115045070648,-0.777134835720062,0.304575979709625,-0.07967085391283,-0.166548475623131,-0.874464094638824
540,0.15454775094986,-0.163060501217842,1.00287079811096,-3.65340757369995,-2.65880942344666,0.708315253257751,1.28948259353638,-0.776970326900482,0.305086225271225,-0.143994525074959,-0.077282182872295,-0.873026967048645
541,0.044716604053974,-0.10022646933794,0.961455762386322,-4.63323831558228,-2.93919467926025,-0.150568708777428,1.28851985931396,-0.776657998561859,0.305657595396042,-0.2197245657444,-0.070304058492184,-0.870688259601593
542,0.065826162695885,-0.017741370946169,1.02946722507477,-3.23499202728271,-1.83256006240845,0.302107214927673,1.28856003284454,-0.77788645029068,0.305058658123016,-0.129816621541977,-0.15173502266407,-0.8563472032547
543,0.062060292810202,-0.241864487528801,1.00378775596619,-2.87805962562561,-1.3377777338028,-0.097636885941029,1.28772735595703,-0.777692854404449,0.305564135313034,-0.188171371817589,-0.16153872013092,-0.855009496212006
544,0.073114037513733,-0.244424730539322,1.00304639339447,-0.833956480026245,0.118829891085625,0.259069830179214,1.28544223308563,-0.777636587619782,0.305953860282898,-0.224649474024773,-0.037793420255184,-0.865862429141998
