number,acc.x,acc.y,acc.z,gyro.x,gyro.y,gyro.z,stateEstimate.x,stateEstimate.y,stateEstimate.z,stabilizer.roll,stabilizer.pitch,stabilizer.yaw
0,-0.049401216208935,0.013944488950074,0.944327592849731,53.170768737793,1.64114487171173,-1.43395245075226,0.45997217297554,0.442305058240891,0.319950461387634,0.669914126396179,0.623694479465485,0.57629805803299
1,0.040113657712936,-0.030492080375552,1.0008978843689,57.7998504638672,7.96869850158691,-0.289981722831726,0.460247933864594,0.443817228078842,0.320641994476318,1.07523334026337,0.588140845298767,0.574101746082306
2,0.020682517439127,-0.028448265045881,0.998451709747314,51.8328475952148,12.9760389328003,0.186584636569023,0.4622962474823,0.442503035068512,0.321097314357758,1.80960023403168,0.312415570020676,0.550681591033935
3,-0.130300030112267,-0.125848561525345,0.87594872713089,43.4227447509766,13.6023683547974,0.021964112296701,0.462697863578796,0.44272592663765,0.321757614612579,2.38169097900391,0.169937580823898,0.557038903236389
4,0.141055956482887,-0.088782966136932,0.889858841896057,16.8452606201172,13.6549091339111,0.398615151643753,0.462892383337021,0.442844539880753,0.322290897369385,2.77450251579285,0.053505640476942,0.564716577529907
5,-0.079622872173786,-0.011368615552783,1.02709650993347,-6.52278518676758,12.1409788131714,-0.309164553880692,0.463009208440781,0.443858444690704,0.322889626026154,2.81639766693115,-0.054570529609919,0.583205580711365
6,0.026667011901736,0.03339496999979,0.940790176391602,-25.8014354705811,7.9153995513916,-1.98286235332489,0.46302330493927,0.444954514503479,0.324028849601746,2.61610794067383,-0.140084370970726,0.592941582202911
7,-0.100775241851807,0.007135650143027,0.991663992404938,-40.9585266113281,7.20728158950806,-2.08122134208679,0.462736964225769,0.446381688117981,0.324613630771637,2.2065532207489,-0.156934693455696,0.597203135490418
8,0.180719569325447,-0.014338416978717,0.922791600227356,-49.4303092956543,2.8096125125885,-4.83958530426025,0.463050037622452,0.447910308837891,0.325082838535309,1.65817975997925,-0.223910391330719,0.578406035900116
9,-0.002673128154129,0.045391354709864,0.961982429027557,-49.5852699279785,0.7264564037323,-6.59861946105957,0.463150292634964,0.447435051202774,0.324237704277039,1.25274872779846,-0.230388835072517,0.530117094516754
10,0.016083315014839,-0.043817594647408,0.992569088935852,-37.7080535888672,-0.019091060385108,-7.87603616714478,0.463070333003998,0.446563065052033,0.324544340372086,0.885378241539001,-0.20465986430645,0.467321395874023
11,-0.054249633103609,-0.155395224690437,1.0068234205246,-22.9782981872559,3.03141069412231,-8.57215213775635,0.463211059570313,0.445669710636139,0.324857801198959,0.637554705142975,-0.205116435885429,0.38791361451149
12,0.006092731840909,-0.053243741393089,0.988752484321594,-8.89337921142578,2.25944662094116,-8.58543300628662,0.463402777910232,0.445324540138245,0.324417173862457,0.467301517724991,-0.231228604912758,0.303988575935364
13,0.029169287532568,-0.047585636377335,0.974593460559845,-1.74796879291534,5.5269045829773,-9.7013578414917,0.463967859745026,0.445358991622925,0.324625819921494,0.383840531110764,-0.294828236103058,0.206916347146034
14,0.067407540977001,0.042787574231625,0.919057309627533,0.386610269546509,13.6266250610352,-8.68210792541504,0.464216381311417,0.445338904857636,0.324837505817413,0.370210587978363,-0.371484637260437,0.113672204315662
15,-0.183548763394356,0.007543969899416,1.05197274684906,0.980665683746338,21.6358089447021,-8.98812866210938,0.465083867311478,0.44451704621315,0.325016349554062,0.450698167085648,-0.608055830001831,0.013081959448755
16,-0.120991639792919,0.056802649050951,0.999723374843597,-0.73648065328598,24.1649913787842,-9.0301513671875,0.466823011636734,0.443861573934555,0.326481103897095,0.499010115861893,-0.97414767742157,-0.104563526809216
17,-0.019615806639195,0.306458294391632,0.885015785694122,-10.2849655151367,26.0439224243164,-8.35602474212647,0.467729181051254,0.444378644227982,0.326705694198608,0.392470329999924,-1.25198006629944,-0.203707575798035
18,0.099851362407208,0.449494898319244,0.851248443126678,-15.6170196533203,21.3554706573486,-7.11244249343872,0.466729491949081,0.445739090442658,0.327091842889786,0.114318192005157,-1.33212113380432,-0.265408426523209
19,0.112708531320095,0.407717794179916,0.876305758953095,-15.1803884506226,14.5633163452148,-5.658766746521,0.466896325349808,0.443494647741318,0.326549738645554,0.177546292543411,-1.48773384094238,-0.31173849105835
20,0.062577173113823,0.168330997228622,0.777538001537323,-13.6032791137695,5.05683135986328,-5.41718435287476,0.467209756374359,0.443542808294296,0.326481610536575,0.00410052575171,-1.61182308197021,-0.371929436922073
21,-0.022526066750288,-0.089280001819134,0.690784871578217,-12.7548389434814,-2.60118794441223,-4.99882698059082,0.467046231031418,0.443541258573532,0.326261669397354,-0.132416427135468,-1.6039844751358,-0.421828418970108
22,-0.107507079839706,-0.189338639378548,0.716766357421875,-11.2574319839478,-10.8230838775635,-2.89718556404114,0.468399405479431,0.444075644016266,0.325010448694229,-0.311428010463715,-1.68380749225616,-0.496345698833466
23,0.031968649476767,-0.22146201133728,0.724797368049622,-8.53138446807861,-16.9372253417969,-2.79512119293213,0.46711128950119,0.443009793758392,0.324276953935623,-0.305014759302139,-1.37704253196716,-0.487032920122147
24,-0.028265064582229,-0.136373117566109,0.908996164798737,-2.8805718421936,-17.2900867462158,-2.8519434928894,0.468066900968552,0.443091809749603,0.32304459810257,-0.399961084127426,-1.24506771564484,-0.524631679058075
25,0.133799165487289,-0.002125480445102,0.935083210468292,5.16781997680664,-12.4862966537476,-4.02856254577637,0.468052208423615,0.442525863647461,0.324344038963318,-0.378373742103577,-1.00331318378448,-0.54418671131134
26,0.109249994158745,-0.0016143823741,0.993512213230133,13.0025186538696,-3.06625556945801,-4.37881851196289,0.469418883323669,0.442191541194916,0.323012560606003,-0.298657834529877,-0.976964056491852,-0.59305477142334
27,0.050691306591034,-0.186320647597313,1.05802953243256,20.6930675506592,5.56452512741089,-5.62674760818481,0.469803422689438,0.440691292285919,0.321669638156891,-0.020565951243043,-0.938011705875397,-0.616316497325897
28,-0.008524565957487,0.004596571438015,1.15407824516296,24.3737716674805,14.9742794036865,-4.21258211135864,0.470917999744415,0.442174047231674,0.320447832345962,-0.000217160093598,-1.05433297157288,-0.705253958702087
29,0.256797581911087,0.207887455821037,1.13054513931274,23.0932598114014,18.7594223022461,-3.09669017791748,0.472800999879837,0.441243410110474,0.320012211799622,0.299171715974808,-1.33778786659241,-0.737772762775421
30,0.051422256976366,0.043081369251013,1.08227801322937,19.0044918060303,19.496753692627,-2.68740224838257,0.472550392150879,0.441591590642929,0.319179952144623,0.467833518981934,-1.4205094575882,-0.770490646362305
31,0.074680104851723,-0.126407980918884,0.948246717453003,9.62118434906006,13.1822299957275,-2.57684969902039,0.472512871026993,0.440999299287796,0.318351179361343,0.702630281448364,-1.53261864185333,-0.784698665142059
32,-0.057331711053848,-0.258569240570068,0.94752961397171,-2.24306750297546,1.83084809780121,-2.53819918632507,0.473342031240463,0.441896855831146,0.3200503885746,0.686567842960358,-1.65932476520538,-0.835513114929199
33,0.028883390128613,-0.299184560775757,1.00935959815979,-15.3756532669067,-5.78806114196777,-1.08472514152527,0.473614543676376,0.442332923412323,0.319326728582382,0.610905945301056,-1.62608337402344,-0.865965366363525
34,-0.01343160122633,-0.079876556992531,1.02607107162476,-25.4076519012451,-7.81043529510498,0.015220766887069,0.475114852190018,0.443401992321014,0.318465322256088,0.333976686000824,-1.64329659938812,-0.904410362243652
35,0.121836185455322,0.077190011739731,1.00745749473572,-29.7319622039795,-7.9590744972229,2.02720260620117,0.476092755794525,0.4416324198246,0.31974983215332,0.254558563232422,-1.55327618122101,-0.86223030090332
36,0.012676772661507,-0.005349750164896,1.09853398799896,-28.6811275482178,-8.84257411956787,4.09610033035278,0.47632172703743,0.442644745111466,0.319151997566223,-0.158351823687553,-1.40296387672424,-0.863461852073669
37,0.071743786334992,-0.134492158889771,1.11456680297852,-21.7912979125977,-10.0337677001953,4.56326484680176,0.478586256504059,0.443248242139816,0.318396717309952,-0.499226778745651,-1.48092377185822,-0.848066031932831
38,-0.053936637938023,0.012539986521006,1.16675591468811,-12.6712188720703,-12.1660842895508,5.87215185165405,0.478580862283707,0.44249615073204,0.318111151456833,-0.632047891616821,-1.28454089164734,-0.773089826107025
39,0.039829403162003,0.058361236006022,1.15521371364594,-2.2324755191803,-14.386157989502,7.17244100570679,0.479907393455505,0.441657304763794,0.320489645004272,-0.676237046718597,-1.2045590877533,-0.694634795188904
40,0.013964835554361,0.045605063438416,1.07917153835297,6.26675462722778,-14.4096212387085,8.80612277984619,0.480424344539642,0.441120684146881,0.320544958114624,-0.641116321086883,-1.01886975765228,-0.606643974781036
41,-0.048459798097611,-0.017791191115975,1.0026181936264,13.0263414382935,-13.6111125946045,9.59334278106689,0.480522453784943,0.440981268882751,0.320715367794037,-0.566464245319366,-0.776866614818573,-0.514408707618713
42,0.172478541731834,0.069584116339684,0.991794109344482,16.0662937164307,-10.4059524536133,11.0256357192993,0.483790636062622,0.44122925400734,0.323936015367508,-0.477597922086716,-0.885299801826477,-0.422645807266235
43,0.12509249150753,-0.223541989922523,1.09908759593964,18.3000373840332,-4.72386837005615,11.0604457855225,0.484407752752304,0.440822780132294,0.324317008256912,-0.270943164825439,-0.754798531532288,-0.306130230426788
44,0.10359650850296,-0.136394545435905,1.21474123001099,15.3491449356079,-3.50699639320374,11.1226091384888,0.486517131328583,0.440686494112015,0.324627012014389,-0.096730224788189,-0.829461872577667,-0.189820557832718
45,0.006405431777239,0.266332060098648,1.22616696357727,11.5571413040161,-4.6438136100769,11.8024530410767,0.487132579088211,0.440720170736313,0.326531767845154,0.012723918072879,-0.739763259887695,-0.076949469745159
46,0.010414114221931,0.008101078681648,1.02508854866028,4.37517929077148,-4.04496622085571,12.4696054458618,0.487221509218216,0.441372007131577,0.327521711587906,0.033640671521425,-0.59373277425766,0.028396049514413
47,-0.091747544705868,-0.029183553531766,1.03800415992737,-1.44136655330658,-2.82113742828369,11.079197883606,0.488636761903763,0.442326247692108,0.328502863645554,-0.042842365801334,-0.620268881320953,0.134442403912544
48,-0.053925085812807,-0.005333514418453,1.0143039226532,-5.22869348526001,-2.71785926818848,9.14494800567627,0.48988875746727,0.442851603031158,0.329673767089844,-0.121757507324219,-0.616396307945251,0.237739607691765
49,0.039856817573309,0.176373288035393,0.93462061882019,-9.17867851257324,-3.24489045143127,8.45009231567383,0.491187155246735,0.442744553089142,0.330741673707962,-0.165865540504456,-0.593242526054382,0.334028244018555
50,0.123143739998341,0.087125174701214,0.866786897182465,-8.61746788024902,-2.46018123626709,8.07143115997314,0.494078248739243,0.441843450069428,0.331635594367981,-0.150621652603149,-0.723988592624664,0.430074542760849
51,-0.022845983505249,-0.063649699091911,0.836558341979981,-8.198317527771,-2.89472937583923,7.2148003578186,0.494024306535721,0.442289531230927,0.332729876041412,-0.270160019397736,-0.55315887928009,0.499267369508743
52,0.103825651109219,-0.199674710631371,0.820867359638214,-5.54949045181274,-5.6507887840271,5.79493951797485,0.495900690555573,0.442603886127472,0.335698127746582,-0.365420520305634,-0.566550731658935,0.567167162895203
53,0.159569025039673,0.028580876067281,0.78199714422226,-3.12335824966431,-10.0200347900391,4.7421932220459,0.496697306632996,0.442780435085297,0.336422801017761,-0.424243688583374,-0.430923253297806,0.625558972358704
54,0.149587526917458,0.167172893881798,0.822318732738495,-1.18178844451904,-15.4191761016846,4.42882680892944,0.498051017522812,0.442907124757767,0.336892545223236,-0.452165871858597,-0.318633228540421,0.673908650875092
55,0.021895045414567,0.133762404322624,0.797253012657166,-1.88674902915955,-19.9386215209961,5.54803085327148,0.49918457865715,0.443067967891693,0.33881938457489,-0.466131716966629,-0.149003729224205,0.71796715259552
56,-0.115638911724091,0.039403080940247,0.82516211271286,-3.37538170814514,-23.798318862915,6.52762079238892,0.499997049570084,0.443403422832489,0.339034706354141,-0.500767588615418,0.088898688554764,0.771258354187012
57,0.40471962094307,0.122213251888752,0.869443774223328,-0.337516397237778,-25.1841983795166,5.93598031997681,0.501197099685669,0.443562150001526,0.339031517505646,-0.537410914897919,0.324013471603394,0.837659180164337
58,0.564154028892517,0.354248762130737,0.995656549930572,-3.38685035705566,-18.3423671722412,7.1596941947937,0.502087354660034,0.444248914718628,0.342219293117523,-0.600219011306763,0.616623938083649,0.896647572517395
59,1.14647114276886,0.069415427744389,0.920143246650696,4.76171779632568,-15.9223279953003,9.15948867797852,0.503234148025513,0.444482803344727,0.342192828655243,-0.631971597671509,0.787019908428192,0.972165107727051
60,0.285569727420807,-0.030106693506241,0.955312848091126,6.73106479644775,-9.98106098175049,8.56498718261719,0.505469083786011,0.442962288856506,0.342176467180252,-0.433099806308746,0.832594156265259,1.06830871105194
61,0.281425088644028,0.076975710690022,0.943116426467896,6.63328313827515,-3.93325710296631,9.06946563720703,0.50681608915329,0.444005727767944,0.342051863670349,-0.480447918176651,0.902374863624573,1.16321504116058
62,0.555511295795441,0.057812865823507,0.939257740974426,6.80324983596802,-0.602188169956207,8.21106719970703,0.50811892747879,0.444207817316055,0.343943804502487,-0.422227829694748,0.938202738761902,1.25411570072174
63,0.110554128885269,-0.016935892403126,1.00664019584656,5.34308052062988,2.96972441673279,7.98741865158081,0.509044051170349,0.444519579410553,0.343871384859085,-0.364438891410828,0.964356362819672,1.33471298217773
64,-0.020246995612979,0.150823220610619,1.03932988643646,4.08971500396729,3.68376517295837,8.18457889556885,0.510114133358002,0.444306373596191,0.343786507844925,-0.284363061189651,0.943600952625275,1.41235089302063
65,0.036675963550806,0.296874225139618,1.02201211452484,2.71606254577637,5.52624225616455,6.9799656867981,0.510685920715332,0.444605320692062,0.346999794244766,-0.259964853525162,0.96831351518631,1.48738706111908
66,0.02079694904387,0.058324575424194,0.952861428260803,1.02623200416565,3.68860363960266,5.78630876541138,0.511749982833862,0.444791942834854,0.347161084413528,-0.237433284521103,0.919700622558594,1.55519425868988
67,0.002620848594233,-0.000710106862243,1.06835424900055,-3.11205315589905,4.03387022018433,5.27360963821411,0.512956976890564,0.444921582937241,0.34731525182724,-0.23497399687767,0.860890567302704,1.61608815193176
68,0.275141060352325,0.013710723258555,1.13090312480927,-3.79091572761536,4.15434980392456,6.42866706848145,0.513220608234406,0.445180684328079,0.350057363510132,-0.275215119123459,0.894874572753906,1.67103338241577
69,0.42615807056427,-0.208734676241875,1.09804582595825,-2.84775614738464,4.27500629425049,7.75971841812134,0.515077531337738,0.446206837892532,0.350453555583954,-0.378023594617844,0.771377861499786,1.7489207983017
70,0.140429258346558,-0.157079309225082,1.18177056312561,4.67909574508667,2.64211869239807,8.12874221801758,0.515144526958466,0.446180015802383,0.35105749964714,-0.36268275976181,0.832574784755707,1.81828820705414
71,0.055414203554392,0.062649704515934,1.08360600471497,3.86941385269165,4.12090110778809,10.2366676330566,0.516163885593414,0.445866882801056,0.351737558841705,-0.26755291223526,0.806791841983795,1.89517712593079
72,-0.010845988057554,-0.059088107198477,0.999318063259125,3.80413627624512,4.92150545120239,11.2365207672119,0.51604163646698,0.445225864648819,0.351603537797928,-0.1614850461483,0.863578915596008,1.98283004760742
73,-0.019785119220615,-0.027778202667832,0.955685794353485,-0.138486042618752,4.4821925163269,12.2849473953247,0.516836822032928,0.44536167383194,0.352348566055298,-0.130049198865891,0.811032712459564,2.09667110443115
74,-0.044841073453426,-0.08019532263279,0.880258202552795,-3.40799403190613,2.41012454032898,11.7839069366455,0.516992807388306,0.445426523685455,0.353078961372375,-0.129949957132339,0.830745577812195,2.21571207046509
75,-0.067048877477646,-0.201065823435783,0.83978545665741,-3.82393145561218,4.17901945114136,11.579701423645,0.519003808498383,0.446613758802414,0.356203496456146,-0.246942803263664,0.684354245662689,2.35056066513062
76,-0.149244487285614,-0.168512687087059,0.828557789325714,-1.34585702419281,4.08957004547119,12.5687294006348,0.520191133022308,0.446897238492966,0.356808692216873,-0.281423896551132,0.60907107591629,2.4694128036499
77,-0.134135559201241,0.248009741306305,0.936670899391174,1.83733224868774,7.15112686157227,11.7797317504883,0.520715117454529,0.447042644023895,0.35731253027916,-0.292402744293213,0.584972679615021,2.59048056602478
78,-0.038177710026503,0.193872720003128,0.947269797325134,2.53325247764587,7.08572196960449,11.1722602844238,0.521510779857636,0.446890026330948,0.352432876825333,-0.252366155385971,0.493250042200089,2.70095109939575
79,-0.026820046827197,-0.06048322096467,1.04257667064667,3.14766144752502,3.33393311500549,10.2665224075317,0.521891534328461,0.446668833494186,0.352485716342926,-0.191158697009087,0.460414797067642,2.8058135509491
80,0.125840440392494,-0.09846954792738,0.993442058563232,6.03970241546631,1.37527477741241,10.2389440536499,0.522504508495331,0.447093367576599,0.352512001991272,-0.169224843382835,0.461796164512634,2.91183662414551
81,-0.021540444344282,-0.123426727950573,0.894446015357971,3.17397141456604,3.20234751701355,9.64150810241699,0.522625744342804,0.446577161550522,0.352571904659271,-0.042858172208071,0.507670998573303,3.00257778167725
82,-0.272960901260376,-0.289094239473343,0.795810699462891,5.55278730392456,7.24534416198731,11.2191114425659,0.523114621639252,0.446285009384155,0.350573122501373,0.039265908300877,0.481345534324646,3.10619115829468
83,-0.099823758006096,0.005438155028969,0.87573778629303,6.04788637161255,8.01703357696533,10.4730777740479,0.524553835391998,0.445968568325043,0.350221425294876,0.127019107341766,0.338491439819336,3.21254920959473
84,0.055026385933161,0.190393567085266,0.941898107528686,7.11696720123291,12.2575988769531,9.95180797576904,0.52540510892868,0.446366488933563,0.349761426448822,0.159756526350975,0.218640804290771,3.32012009620666
85,-0.12330150604248,-0.052313685417175,1.09718668460846,8.04440879821777,12.1750545501709,8.90527725219727,0.526335179805756,0.446712732315064,0.345545738935471,0.205660447478294,0.066026523709297,3.42084622383118
86,0.048849582672119,-0.096297688782215,1.07539474964142,5.85817384719849,13.6096534729004,8.65239143371582,0.527100622653961,0.446968883275986,0.344859331846237,0.272544831037521,-0.053087029606104,3.51293325424194
87,0.088009081780911,-0.156921356916428,1.01244378089905,3.27418494224548,10.8149785995483,6.02933645248413,0.525150418281555,0.449019938707352,0.344492852687836,0.157461628317833,0.050741944462061,3.6158275604248
88,0.031747363507748,-0.152983322739601,0.904181659221649,0.182692274451256,6.40879631042481,4.83921051025391,0.52577930688858,0.448736727237701,0.340489476919174,0.244636610150337,-0.044808186590672,3.66481637954712
89,0.052910882979632,0.131965041160584,0.806626677513123,-1.13781428337097,6.22289133071899,3.22420287132263,0.525436222553253,0.44893690943718,0.339701861143112,0.231040000915527,-0.03533023968339,3.71340537071228
90,0.006880442146212,0.192146554589272,0.840060353279114,-0.708234369754791,9.69486236572266,2.18932604789734,0.526268243789673,0.44932147860527,0.338730692863464,0.186653152108192,-0.167703539133072,3.74598813056946
91,0.001090179546736,-0.06262967735529,0.979536533355713,4.27311515808106,6.45598793029785,1.54446840286255,0.526126861572266,0.448584705591202,0.336792439222336,0.27577942609787,-0.201234593987465,3.7616274356842
92,0.00433875946328,0.055740837007761,1.03431630134583,6.18349266052246,9.67110157012939,0.285680532455444,0.526569306850433,0.448739111423492,0.335473030805588,0.336566478013992,-0.269765496253967,3.77290868759155
93,0.095696531236172,0.120997063815594,1.12696671485901,9.56380748748779,9.16215133666992,-0.746493935585022,0.527168750762939,0.448095440864563,0.334284514188766,0.483297556638718,-0.367594987154007,3.76918029785156
94,-0.063923083245754,-0.090565003454685,1.15032744407654,10.6754941940308,11.6183280944824,-0.815102159976959,0.526887774467468,0.448918461799622,0.333246976137161,0.525229811668396,-0.405911058187485,3.7654595375061
95,0.106455080211163,-0.030753890052438,1.13127505779266,8.44929885864258,14.1196117401123,-0.594725549221039,0.528956651687622,0.45093509554863,0.329317480325699,0.454538613557816,-0.68332177400589,3.76209235191345
96,0.037538670003414,0.040477894246578,1.05148303508759,6.46644830703735,15.569055557251,-2.43942046165466,0.529501676559448,0.451227933168411,0.328285723924637,0.535495281219482,-0.825258016586304,3.75016045570374
97,-0.000964978011325,-0.327375501394272,1.00874793529511,3.11023688316345,12.2655305862427,-3.42069125175476,0.530460119247437,0.450643509626389,0.327285021543503,0.684064030647278,-0.983382701873779,3.7186861038208
98,0.252281755208969,-0.18124395608902,1.05802941322327,-1.37635743618011,7.89687204360962,-4.39791393280029,0.531135141849518,0.45035457611084,0.325828045606613,0.761171758174896,-1.07823312282562,3.68280911445618
99,0.05559391528368,-0.1040213778615,1.00446534156799,-2.97773337364197,5.4327073097229,-5.33059692382813,0.531641066074371,0.450567990541458,0.32488477230072,0.738213419914246,-1.13943338394165,3.63541746139526
100,-0.120229870080948,-0.171689987182617,1.01346182823181,-7.81275653839111,-1.18738353252411,-6.51910066604614,0.531847357749939,0.451049000024796,0.323999971151352,0.6523078083992,-1.13068771362305,3.57779908180237
101,0.00919081363827,0.065566226840019,1.02843976020813,-10.8880739212036,-0.799308478832245,-7.0125036239624,0.531214237213135,0.450079172849655,0.323475033044815,0.672062158584595,-0.986598670482636,3.52516412734985
102,-0.033740188926458,-0.060393888503313,1.15606331825256,-13.6528739929199,-0.384115755558014,-6.89921760559082,0.531733810901642,0.450098752975464,0.322630077600479,0.553740978240967,-0.983649015426636,3.45413756370544
103,0.02217392064631,-0.128105476498604,1.0701801776886,-13.3682289123535,1.40648531913757,-8.00356101989746,0.533348321914673,0.451160997152329,0.321822851896286,0.331487864255905,-1.08791446685791,3.3652241230011
104,0.040722835808992,-0.016457481309772,1.02292609214783,-12.2132015228271,5.31899452209473,-9.23476791381836,0.53357058763504,0.450505048036575,0.321204125881195,0.266704171895981,-1.07624506950378,3.29014253616333
105,-0.010645567439497,-0.1497533172369,0.967757821083069,-10.7409896850586,3.54769062995911,-9.07701969146729,0.53377628326416,0.451366305351257,0.320142567157745,0.071920543909073,-1.08348429203033,3.19306683540344
106,0.07210948318243,-0.039360661059618,1.01785433292389,-10.7408390045166,2.06502270698547,-8.02333545684814,0.535653114318848,0.450612276792526,0.319407045841217,0.043941166251898,-1.22665393352509,3.10407948493958
107,-0.00923656579107,0.028317589312792,1.01756751537323,-7.94478559494019,-0.025492686778307,-7.07152605056763,0.536548614501953,0.450557917356491,0.318717390298843,-0.047460407018662,-1.25465214252472,3.02737236022949
108,-0.006209570914507,0.001008598948829,1.06061375141144,-5.5158953666687,-2.97223663330078,-4.96159648895264,0.537179410457611,0.451139867305756,0.316425561904907,-0.173857018351555,-1.24211370944977,2.95941042900085
109,-0.012441981583834,-0.021220719441772,1.02436363697052,-1.44419384002686,-6.86759281158447,-3.1193163394928,0.539285242557526,0.451507180929184,0.315583229064941,-0.237135887145996,-1.32828283309937,2.90668797492981
110,0.003856411436573,-0.16735877096653,0.979781448841095,6.90082454681397,-13.3182096481323,-1.95241343975067,0.539906740188599,0.450871288776398,0.314964592456818,-0.145701542496681,-1.20682692527771,2.88965916633606
111,0.006698318291456,-0.057596731930971,0.999280095100403,10.1731615066528,-15.6142225265503,-1.65792846679688,0.540604174137116,0.449434965848923,0.315936923027039,0.089612245559692,-1.00920844078064,2.89988327026367
112,-0.014200433157384,0.044131897389889,1.02973592281342,15.6457290649414,-13.8406162261963,-2.01774334907532,0.54190719127655,0.450663089752197,0.315351396799087,0.076708987355232,-0.908476173877716,2.85592794418335
113,0.017768746241927,-0.103747643530369,1.10100257396698,17.0772438049316,-9.92921447753906,-2.47775197029114,0.542885482311249,0.44962140917778,0.314774811267853,0.350528746843338,-0.770942211151123,2.85351705551147
114,-0.008757925592363,-0.017743043601513,1.17791342735291,16.2142715454102,-4.12758445739746,-3.50793313980103,0.544849634170532,0.450106054544449,0.314224004745483,0.465052992105484,-0.790690422058106,2.81195902824402
115,0.037704143673182,-0.012088378891349,1.13902103900909,12.0407943725586,3.8933002948761,-5.65082788467407,0.545226156711578,0.449388682842255,0.314187616109848,0.684889912605285,-0.698532044887543,2.78167200088501
116,-0.00124942814,0.034709583967924,1.23521220684052,5.06002044677734,9.84067916870117,-7.33662843704224,0.546606540679932,0.449177503585815,0.31397756934166,0.791258275508881,-0.796799242496491,2.72206997871399
117,0.093773670494557,0.227096199989319,1.26375222206116,-5.84507608413696,14.1569633483887,-8.95266914367676,0.548184514045715,0.44963538646698,0.313991785049438,0.732752501964569,-0.975096344947815,2.63440203666687
118,0.486597985029221,0.158540785312653,1.21199834346771,-15.0008993148804,11.6232137680054,-10.940863609314,0.548688530921936,0.450541764497757,0.312620460987091,0.519487500190735,-1.07447040081024,2.52961540222168
119,0.056337121874094,0.108510285615921,1.12604486942291,-17.992317199707,3.18113684654236,-13.543794631958,0.550924956798553,0.450946033000946,0.312830448150635,0.309872448444366,-1.29142963886261,2.40118050575256
120,0.034569539129734,0.228820517659187,1.10422384738922,-15.9187269210815,-3.61433696746826,-14.870548248291,0.552848935127258,0.450685232877731,0.313202530145645,0.165066570043564,-1.36872005462646,2.26146459579468
121,0.010978057980538,0.254301697015762,1.10558545589447,-20.4819717407227,-7.86419916152954,-14.4984436035156,0.553564727306366,0.451228141784668,0.311114937067032,-0.090735606849194,-1.28647077083588,2.10602521896362
122,-0.034383721649647,0.078680142760277,1.05915796756744,-20.257396697998,-14.205153465271,-15.087194442749,0.555521905422211,0.451843470335007,0.311517506837845,-0.362822204828262,-1.27687478065491,1.94792330265045
123,0.057085290551186,0.134358212351799,1.03617966175079,-22.2735157012939,-17.7015361785889,-15.1818599700928,0.556060373783112,0.451209276914597,0.312340885400772,-0.497517257928848,-1.02656960487366,1.81535494327545
124,-0.042715411633253,0.313483059406281,1.05049347877502,-24.0848999023437,-15.6738090515137,-14.127631187439,0.557057082653046,0.451911121606827,0.310957819223404,-0.811748683452606,-0.837477445602417,1.65778362751007
125,-0.171037331223488,0.400536924600601,1.05468904972076,-21.995756149292,-14.335503578186,-13.9590616226196,0.55969250202179,0.450420200824738,0.311558246612549,-0.862278044223785,-0.820749521255493,1.54275560379028
126,0.03298220038414,0.350663423538208,1.04199707508087,-15.2727956771851,-17.5014114379883,-13.3293685913086,0.562176823616028,0.451039910316467,0.311984062194824,-1.13668286800385,-0.772481143474579,1.40096569061279
127,0.091420613229275,0.527155578136444,1.00807023048401,-6.27517509460449,-21.9129047393799,-14.2181587219238,0.562403440475464,0.449788570404053,0.31299364566803,-1.11137223243713,-0.424674063920975,1.28139352798462
128,0.022320557385683,0.327727109193802,0.984309136867523,3.58785080909729,-21.5956172943115,-13.6544389724731,0.565867185592651,0.45019456744194,0.313067585229874,-1.18315041065216,-0.437781631946564,1.14837920665741
129,-0.10534755885601,0.102526478469372,0.97759872674942,7.79215049743652,-25.0405311584473,-12.6016693115234,0.565096020698547,0.449572682380676,0.31406444311142,-1.07296311855316,0.070198155939579,1.00920391082764
130,-1.58799721248215E-05,-0.016849670559168,0.983807504177094,12.1081695556641,-26.953971862793,-12.6220054626465,0.569693565368652,0.450284600257874,0.314407825469971,-1.04672610759735,-0.01353232935071,0.906734585762024
131,0.027799105271697,0.17009037733078,0.990907907485962,12.292067527771,-23.4232311248779,-10.1137590408325,0.570086598396301,0.45087468624115,0.311226725578308,-0.992389500141144,0.369190216064453,0.775330662727356
132,-0.132586017251015,0.019390335306525,1.00364303588867,10.3330354690552,-20.6337223052979,-7.97056722640991,0.571603298187256,0.451650649309158,0.3115114569664,-0.943114519119263,0.611872732639313,0.678570806980133
133,0.042082995176315,-0.018211361020804,0.948636054992676,7.81556034088135,-18.310583114624,-4.91788625717163,0.57284688949585,0.451222598552704,0.31185594201088,-0.77286821603775,0.876376390457153,0.605016648769379
134,-0.029765607789159,0.19299142062664,1.00583028793335,4.25476455688477,-11.9278650283813,-2.84718918800354,0.574911534786224,0.452311605215073,0.308641761541367,-0.8013995885849,0.963127136230469,0.573609471321106
135,0.008248643018305,0.117714166641235,1.01907503604889,3.93913102149963,-6.18354415893555,-1.26500940322876,0.576200425624847,0.453596204519272,0.308654814958572,-0.862475216388702,1.10672152042389,0.548978745937347
136,0.015984136611223,0.099547326564789,1.05292022228241,-2.58572173118591,5.04584312438965,-0.893171548843384,0.57909768819809,0.453788071870804,0.308606773614883,-0.813395321369171,0.998450636863708,0.555590212345123
137,-0.009517693892121,0.043211359530687,1.07645261287689,-3.82648873329163,-2.28953242301941,0.573312044143677,0.579801917076111,0.454683184623718,0.308761358261108,-0.893413126468658,1.10755443572998,0.543988645076752
138,0.07719936221838,0.212838843464851,0.924217045307159,-6.43693208694458,-2.95819425582886,0.383498758077622,0.580418109893799,0.455078065395355,0.307271629571915,-0.925327181816101,1.22479343414307,0.53954553604126
139,0.210907444357872,0.12970919907093,0.953987538814545,-5.05631828308106,-1.81618857383728,3.02055525779724,0.582535624504089,0.455395847558975,0.307247132062912,-0.963399112224579,1.17338073253632,0.564010143280029
140,0.501813471317291,0.006136215291917,0.985772967338562,-2.68314695358276,-0.827863335609436,3.86076760292053,0.584034025669098,0.455600023269653,0.30722251534462,-0.967147767543793,1.18798971176147,0.592961490154266
141,0.173180103302002,0.242140844464302,1.0830899477005,-5.73607349395752,-1.19551539421082,4.33978271484375,0.584870040416718,0.455655783414841,0.306800186634064,-0.957674205303192,1.26024901866913,0.6212437748909
142,0.012053771875799,0.277426809072494,1.10754978656769,-1.04851591587067,3.74035000801086,4.78379011154175,0.585668504238129,0.456261813640595,0.306830108165741,-0.999759197235107,1.31776106357574,0.66470855474472
143,0.106774471700192,0.124507419764996,0.964901506900787,6.36368274688721,-1.64182698726654,4.98660612106323,0.587762594223022,0.456673502922058,0.306862771511078,-0.971175909042358,1.22511255741119,0.728151738643646
144,0.033374078571797,-0.032428115606308,0.987236082553864,4.42511987686157,-1.24721193313599,6.00521278381348,0.587755382061005,0.456895172595978,0.306727677583694,-0.903034746646881,1.38651132583618,0.762270867824554
145,-0.039164964109659,0.186112686991692,0.996256113052368,5.96075916290283,2.13584804534912,4.90839338302612,0.589237093925476,0.459153771400452,0.306720525026321,-1.03258693218231,1.36192858219147,0.863224983215332
146,0.113804213702679,0.090515166521072,0.970307648181915,9.91866016387939,0.221186488866806,4.88724374771118,0.591520965099335,0.459382385015488,0.306780695915222,-0.890973508358002,1.2324857711792,0.915181934833527
147,0.123460739850998,-0.021967502310872,1.00586783885956,12.4935741424561,-1.30995643138886,5.14320087432861,0.592234253883362,0.460703343153,0.304923117160797,-0.865497767925262,1.28385543823242,0.977164268493652
148,-0.053787957876921,0.193047448992729,1.03622984886169,8.6939640045166,2.50927305221558,4.5389289855957,0.593017756938934,0.460850298404694,0.304968774318695,-0.684629499912262,1.3265688419342,1.00835084915161
149,-0.124368384480476,0.113217793405056,1.00275111198425,10.9051952362061,-1.72894728183746,5.27780532836914,0.592987656593323,0.462347060441971,0.305014342069626,-0.676776051521301,1.45089054107666,1.05990064144135
150,0.111381649971008,0.023285008966923,0.965424180030823,13.4668197631836,-2.50230765342712,4.12285900115967,0.59367436170578,0.462404251098633,0.305123686790466,-0.492395132780075,1.5049957036972,1.08701479434967
151,0.017278226092458,-0.024161867797375,0.984508991241455,6.70813608169556,0.361909210681915,5.90089321136475,0.593748033046722,0.462540209293366,0.302721440792084,-0.336380928754807,1.60914552211761,1.11055099964142
152,0.554533898830414,0.065174713730812,0.969618201255798,9.60878467559814,0.67892187833786,4.81678295135498,0.594650745391846,0.464124381542206,0.302551329135895,-0.348171472549438,1.59613144397736,1.19507241249084
153,0.478246569633484,0.079111866652966,1.00004899501801,8.35363006591797,5.60914087295532,6.49946737289429,0.595428466796875,0.464902669191361,0.30240187048912,-0.253398388624191,1.57156407833099,1.25847172737122
154,0.069569371640682,0.028968308120966,1.00122904777527,9.37013721466064,10.7126512527466,6.19159269332886,0.596615135669708,0.465813279151917,0.302455067634583,-0.164842903614044,1.45962393283844,1.32144606113434
155,-0.222982212901115,-0.003675061743706,0.954827427864075,20.0253295898437,16.8509635925293,6.03719329833984,0.597434341907501,0.467421650886536,0.302252173423767,-0.120337389409542,1.33074533939362,1.40200197696686
156,-0.131531372666359,0.107841558754444,0.921187877655029,24.5243301391602,19.9535961151123,5.6116681098938,0.598610520362854,0.468255788087845,0.302042812108994,0.106732882559299,1.11774170398712,1.46445059776306
157,0.002004921203479,-0.021037455648184,0.917985439300537,31.0696353912353,23.8358917236328,5.64745569229126,0.60005909204483,0.469668865203857,0.300784945487976,0.318729966878891,0.828510999679565,1.54040777683258
158,-0.038011483848095,0.042373806238175,0.931927442550659,27.7275257110596,26.8013591766357,6.0881085395813,0.601677477359772,0.468441426753998,0.300421178340912,0.82738983631134,0.51615971326828,1.54948103427887
159,-0.04651503264904,0.073551051318646,0.940557479858398,24.9024543762207,27.431619644165,6.94061231613159,0.601950824260712,0.470464169979095,0.300092309713364,0.963358342647552,0.305159956216812,1.64380419254303
160,-0.038438089191914,-0.025678651407361,0.963214218616486,17.9562969207764,19.1061916351318,7.12122583389282,0.601359367370606,0.473440408706665,0.299828201532364,0.976726710796356,0.197441354393959,1.76658248901367
161,-0.035397592931986,0.035926125943661,0.938042402267456,9.36202144622803,8.3515043258667,4.7605414390564,0.602489233016968,0.472340196371079,0.296619951725006,1.33241856098175,0.002474804176018,1.79030692577362
162,0.009874095208943,-0.061284277588129,0.940402030944824,0.360842674970627,0.384721726179123,2.82474207878113,0.601419031620026,0.474149584770203,0.296170800924301,1.29256129264832,0.119929522275925,1.85725581645966
163,0.089872844517231,0.009085853584111,0.933635652065277,-8.39695549011231,-12.1085052490234,1.11868560314178,0.601259529590607,0.474282026290894,0.29552760720253,1.3454155921936,0.232324197888374,1.8714507818222
164,-0.027058804407716,-0.132988795638084,0.983395338058472,-10.9953575134277,-18.9077796936035,-1.0661997795105,0.600317358970642,0.475681781768799,0.295240789651871,1.19358325004578,0.512243151664734,1.89032924175262
165,0.054011236876249,-0.071356780827046,1.00727665424347,-15.9771604537964,-25.8568077087402,-1.45007944107056,0.599638521671295,0.476536273956299,0.294508934020996,1.06226861476898,0.839282751083374,1.88428854942322
166,0.013880334794521,-0.099924020469189,1.12059259414673,-16.4242191314697,-27.0423011779785,-2.36235761642456,0.600863933563232,0.477658331394196,0.293810695409775,0.861854314804077,0.987004101276398,1.8540233373642
167,0.024550706148148,-0.027593670412898,1.11651945114136,-14.4540777206421,-21.5671577453613,-0.816969633102417,0.601343154907227,0.477956354618073,0.293445020914078,0.758926212787628,1.22161495685577,1.8216325044632
168,0.029555646702647,-0.039042610675097,1.16069269180298,-8.45370292663574,-9.81984806060791,0.323912858963013,0.601503789424896,0.478775918483734,0.292921602725983,0.622101247310638,1.4096052646637,1.81896460056305
169,-0.029254661872983,0.034874465316534,1.25749778747559,0.682143092155456,2.48939728736877,-0.176361739635468,0.600929260253906,0.479016959667206,0.292549014091492,0.616393625736237,1.55789470672607,1.82147598266602
170,0.061353292316198,0.133148297667503,0.966604053974152,8.1653413772583,15.0675468444824,-0.410388290882111,0.601952254772186,0.478664696216583,0.29251167178154,0.764570713043213,1.41850006580353,1.7872474193573
171,0.037878703325987,0.196008324623108,1.03358399868011,14.4352941513062,32.7614440917969,1.7651242017746,0.603375554084778,0.478754222393036,0.291562080383301,0.895832300186157,1.06592321395874,1.77020621299744
172,-0.093502558767796,0.327979981899261,0.958085060119629,17.190731048584,41.2470932006836,2.63420557975769,0.605588734149933,0.478194057941437,0.291406333446503,1.17593252658844,0.509275376796722,1.74565494060516
173,0.088986426591873,0.089769341051579,0.98382955789566,18.9800491333008,39.9758644104004,4.81703615188599,0.606074273586273,0.479867190122604,0.291268944740295,1.22688925266266,0.096130184829235,1.81418132781982
174,0.431227326393127,-0.082079321146011,1.06999635696411,16.1389770507812,33.7640380859375,4.82117080688477,0.606437563896179,0.480165392160416,0.292366027832031,1.42839407920837,-0.27955225110054,1.86887264251709
175,0.26331415772438,-0.037572667002678,1.1364209651947,9.75200939178467,22.9658641815186,5.38486003875732,0.604833424091339,0.480685740709305,0.292597651481628,1.55690836906433,-0.359791040420532,1.96661281585693
176,0.098525874316692,0.006430285051465,1.07610535621643,4.43642091751099,11.6519460678101,5.38920879364014,0.606034517288208,0.480104029178619,0.292569607496262,1.74709618091583,-0.654169201850891,1.99715888500214
177,-0.084540702402592,-0.016555167734623,1.1993305683136,-1.70568871498108,1.44670176506042,5.88440275192261,0.606560289859772,0.479900628328323,0.292748689651489,1.82271993160248,-0.76109915971756,2.04995346069336
178,-0.038366220891476,0.242421209812164,1.19064557552338,-7.26291799545288,-8.57396030426025,5.30538415908814,0.606353640556335,0.480080962181091,0.293150365352631,1.78463089466095,-0.671466588973999,2.11740803718567
179,-0.115415826439857,0.245930209755898,1.15901792049408,-11.6592292785645,-12.1261653900147,5.57434368133545,0.605592787265778,0.48190313577652,0.293860554695129,1.5222293138504,-0.453393787145615,2.20009732246399
180,-0.160415142774582,0.377868473529816,1.0624258518219,-12.0668859481812,-12.7343578338623,4.12192487716675,0.604725062847137,0.482561320066452,0.294594019651413,1.3712043762207,-0.200762748718262,2.27366518974304
181,0.025810973718762,0.37593013048172,1.05924713611603,-13.159068107605,-7.39190340042114,3.25127124786377,0.604617118835449,0.483251839876175,0.292993575334549,1.20471620559692,-0.050390429794788,2.31524062156677
182,-0.056592646986246,0.310491502285004,0.9096719622612,-9.54594039916992,3.1662175655365,3.23656010627747,0.607175946235657,0.48240202665329,0.293704032897949,1.21656310558319,-0.275960117578507,2.2857871055603
183,0.095106869935989,0.109255686402321,0.93346631526947,-8.30092144012451,12.0979700088501,3.41120409965515,0.607540130615234,0.482942014932632,0.294315904378891,1.08673274517059,-0.32847586274147,2.31957650184631
184,-0.048664931207895,-0.076544441282749,0.900851607322693,-7.11806392669678,20.1401920318604,3.25142216682434,0.607745289802551,0.483476042747498,0.293346077203751,0.973684191703796,-0.443746656179428,2.35700964927673
185,0.016877412796021,-0.021811366081238,0.917514264583588,-8.28955554962158,26.7501697540283,4.54065895080566,0.608542382717133,0.483945667743683,0.293685972690582,0.874988734722137,-0.701016187667847,2.38575530052185
186,-0.012324047274888,-0.101513154804707,0.897803127765656,-8.9482536315918,31.6072425842285,4.05249691009522,0.608421981334686,0.483843147754669,0.294049322605133,0.829929053783417,-0.922924339771271,2.45070314407349
187,0.048991806805134,-0.155925199389458,0.88550990819931,-9.64268970489502,30.0779647827148,5.31997680664063,0.610504448413849,0.484425187110901,0.297821581363678,0.691086411476135,-1.41605472564697,2.45691609382629
188,0.020584180951119,-0.16613906621933,0.84341824054718,-12.841067314148,25.9699172973633,5.075599193573,0.611065685749054,0.485272347927094,0.298106700181961,0.515110194683075,-1.71133470535278,2.50571703910828
189,0.031950313597918,0.007509017363191,0.847562313079834,-13.7747793197632,15.1296148300171,6.95522928237915,0.611234128475189,0.485472917556763,0.298378378152847,0.394409865140915,-1.89228415489197,2.5797872543335
190,-0.044377651065588,0.056391853839159,0.878194391727448,-11.5911769866943,8.94415950775147,6.15394973754883,0.609355211257935,0.485633283853531,0.298576265573502,0.274456977844238,-1.76949310302734,2.69479155540466
191,0.078975267708302,0.028188295662403,0.956012666225433,-9.07930088043213,-2.18932843208313,5.16917085647583,0.609580338001251,0.48561704158783,0.298571139574051,0.192725956439972,-1.80913579463959,2.76184177398682
192,0.025618173182011,0.019101658836007,0.974436223506928,-5.63342952728272,-11.4288673400879,4.02700567245483,0.609840095043182,0.485484778881073,0.298515409231186,0.145829483866692,-1.74121677875519,2.81648898124695
193,0.1890529692173,0.067511513829231,1.19870018959045,-3.39620280265808,-12.3352842330933,3.82377123832703,0.610480844974518,0.485044687986374,0.29844805598259,0.164662659168243,-1.64947354793549,2.86639475822449
194,0.109747618436813,-0.039270684123039,1.25750970840454,4.6281590461731,-12.4855794906616,2.54731369018555,0.609554052352905,0.484266310930252,0.298780024051666,0.256339281797409,-1.36577844619751,2.93908333778381
195,0.097135365009308,0.019716059789062,1.0589052438736,12.0284576416016,-12.6672611236572,2.02460265159607,0.610056877136231,0.484413057565689,0.299027562141418,0.317707657814026,-1.25276744365692,2.95386385917664
196,-0.074110008776188,-0.079402439296246,0.989393174648285,13.6196222305298,-13.1714038848877,1.75856971740723,0.610132694244385,0.483612895011902,0.299448579549789,0.544945955276489,-1.08921909332275,3.0020010471344
197,0.028583519160748,-0.05933628231287,0.960059642791748,7.27972984313965,-5.42961835861206,1.01792812347412,0.611726045608521,0.484348863363266,0.30204364657402,0.556408047676086,-1.1275486946106,2.98229360580444
198,-0.020672140643001,-0.015091828070581,1.01503217220306,3.80495429039001,-5.73161315917969,-0.354549616575241,0.612116098403931,0.484009295701981,0.302524566650391,0.651445865631104,-1.05707657337189,2.99700951576233
199,0.061858080327511,0.054423205554485,0.923634946346283,4.9415225982666,-8.84299468994141,-2.37828731536865,0.613183438777924,0.483804941177368,0.302976101636887,0.706131219863892,-1.05525004863739,2.98455190658569
200,0.014457468874753,-0.163941994309425,0.829816401004791,-3.39924502372742,-7.28577947616577,-3.53928422927856,0.613586485385895,0.483725666999817,0.304286986589432,0.723326206207275,-0.947058498859406,2.95838737487793
201,0.116718374192715,-0.121443048119545,0.79719489812851,-8.64253997802734,-5.03856945037842,-4.75098943710327,0.614060521125793,0.484097927808762,0.304634869098663,0.624375939369202,-0.874153137207031,2.90348172187805
202,0.030995452776551,-0.250058233737946,0.841169834136963,-10.5492639541626,-6.60721349716187,-5.27309942245483,0.614580094814301,0.484828144311905,0.304815649986267,0.445414930582047,-0.808266818523407,2.83440828323364
203,0.111459627747536,-0.105993509292603,0.790404617786408,-9.81626319885254,0.882883608341217,-6.36711835861206,0.614543974399567,0.485005766153336,0.304843574762344,0.320973455905914,-0.703782141208649,2.7755012512207
204,0.071088500320912,-0.036317586898804,1.00720691680908,-7.76590394973755,12.4962682723999,-5.4725284576416,0.615294754505158,0.486388295888901,0.306117653846741,0.073726192116737,-0.79187273979187,2.67839097976685
205,-0.060462802648544,0.133870840072632,0.923306882381439,2.92076396942139,13.577522277832,-6.55756425857544,0.616296887397766,0.486257880926132,0.30597123503685,0.09404132515192,-0.96425873041153,2.62261271476746
206,-0.091534689068794,0.09162487834692,0.890099763870239,5.44862222671509,17.4517822265625,-4.90600347518921,0.617464184761047,0.485999584197998,0.305739820003509,0.188657864928246,-1.18025410175323,2.57512307167053
207,-0.081396274268627,0.15761686861515,0.848469495773315,8.70704174041748,21.8991470336914,-5.37279939651489,0.618809103965759,0.48492631316185,0.306480377912521,0.395178347826004,-1.44041228294373,2.54635405540466
208,-0.092295080423355,0.206943437457085,0.905228435993195,6.37013006210327,16.8810138702393,-4.23818969726563,0.61976820230484,0.484461635351181,0.306065768003464,0.514950394630432,-1.6578221321106,2.5113410949707
209,-0.160037621855736,0.396335929632187,0.940189719200134,9.76048946380615,11.3332347869873,-5.81170034408569,0.619656801223755,0.483601570129395,0.305749386548996,0.670279920101166,-1.69408190250397,2.48378109931946
210,0.103925444185734,0.132284983992577,1.00010108947754,13.3926773071289,3.35105586051941,-5.2939133644104,0.619996964931488,0.482864111661911,0.30859649181366,0.861115872859955,-1.70208525657654,2.44446086883545
211,-0.056755430996418,-0.003867066698149,1.00634038448334,10.0695247650146,-2.56118726730347,-4.82429313659668,0.62047815322876,0.483592867851257,0.308417230844498,0.851480722427368,-1.69098162651062,2.37040591239929
212,-0.031429708003998,0.121022649109364,1.05966675281525,1.3695582151413,-4.71197748184204,-4.01084423065186,0.621295988559723,0.483593970537186,0.308143258094788,0.886883497238159,-1.68198120594025,2.32012128829956
213,-0.043519161641598,0.294316500425339,1.0207142829895,-8.74603748321533,-11.5562143325806,-3.05195689201355,0.622538387775421,0.484130561351776,0.307888120412827,0.766932427883148,-1.65785014629364,2.2636992931366
214,-0.202330812811851,0.351090997457504,1.01034712791443,-15.3769235610962,-12.7212648391724,-2.83946585655212,0.625211417675018,0.4836585521698,0.312061190605164,0.686992347240448,-1.73163270950317,2.23600721359253
215,-0.057495810091496,0.327226489782333,1.0340439081192,-19.2536449432373,-14.0567789077759,-1.8549679517746,0.62511020898819,0.483844846487045,0.31232425570488,0.464830905199051,-1.46219122409821,2.20359659194946
216,-0.164471015334129,0.502197504043579,0.995273530483246,-12.9163684844971,-14.7898483276367,-2.84747076034546,0.626345992088318,0.483070880174637,0.312395393848419,0.37951049208641,-1.34616005420685,2.19806861877441
217,-0.030090680345893,0.301775515079498,1.01654303073883,-4.11240005493164,-11.4064245223999,-2.24761533737183,0.627962172031403,0.482323825359345,0.315393358469009,0.344093710184097,-1.26601362228394,2.1876654624939
218,-0.215297266840935,0.405405342578888,0.991235911846161,6.54722499847412,-4.15165042877197,-1.98195838928223,0.629251837730408,0.481135874986649,0.315646022558212,0.460476756095886,-1.19885194301605,2.19068288803101
219,0.003189632901922,0.334263861179352,1.00921702384949,8.06460189819336,0.769510746002197,-1.78225910663605,0.62934809923172,0.480464428663254,0.316088974475861,0.559822618961334,-1.07004380226135,2.18564033508301
220,-0.090005293488503,0.492825359106064,0.966886937618256,8.95894718170166,0.76480907201767,-1.4825177192688,0.630870580673218,0.480641722679138,0.318337500095367,0.568309783935547,-1.11833834648132,2.14928007125854
221,0.007034941576421,0.19321183860302,1.02714562416077,1.6560834646225,3.9360044002533,-1.35683405399323,0.63097482919693,0.48037400841713,0.318907201290131,0.595601797103882,-1.04192698001862,2.13599300384521
222,0.105214409530163,0.18900765478611,1.060955286026,-1.52941763401032,-2.58636689186096,-1.67232835292816,0.632240355014801,0.480374604463577,0.319377273321152,0.559866428375244,-1.07544350624084,2.11259627342224
223,0.197398513555527,0.152990266680718,1.07331800460815,-5.35160255432129,-2.28031086921692,-1.52433681488037,0.634910047054291,0.480425149202347,0.322808295488358,0.476320564746857,-1.21742522716522,2.08014392852783
224,-0.030271736904979,0.115138351917267,1.0473757982254,-3.58985257148743,-1.38780307769775,-1.06287860870361,0.634903907775879,0.479194730520248,0.323715358972549,0.54099029302597,-1.05268013477325,2.09282541275024
225,0.101258605718613,0.111295826733112,0.991303443908691,-3.9360032081604,-4.48912143707275,-0.764712393283844,0.635394990444183,0.479286730289459,0.324637472629547,0.440762460231781,-0.956836640834808,2.0755443572998
226,0.045590080320835,0.179759219288826,1.0102790594101,-4.03732204437256,-1.782630443573,-0.574760675430298,0.63599306344986,0.479450881481171,0.325556367635727,0.345642596483231,-0.872963190078735,2.05771589279175
227,0.075833514332771,-0.017455385997892,0.997678101062775,-4.18663930892944,-3.15689086914062,1.70009231567383,0.638201117515564,0.477630883455277,0.328856348991394,0.470665693283081,-0.949398398399353,2.09224104881287
228,0.082814872264862,0.025975599884987,0.981768667697906,-2.62125897407532,-2.6379017829895,1.54552471637726,0.638875484466553,0.47764778137207,0.329914748668671,0.380926489830017,-0.866259157657623,2.10107207298279
229,0.077506452798843,-0.019554475322366,1.04073894023895,-0.578761160373688,-0.691972732543945,-0.113304890692234,0.640951812267303,0.477664649486542,0.330814570188522,0.32258614897728,-0.953709304332733,2.09696960449219
230,-0.083871595561504,-0.096725940704346,1.14303338527679,1.4582234621048,-1.89789259433746,-1.05165874958038,0.641755104064941,0.477377474308014,0.33397975564003,0.300653129816055,-0.879668414592743,2.08987379074097
231,-0.027213668450713,-0.056426022201777,1.02771139144897,1.14916479587555,-1.97418653964996,-1.02098679542542,0.642442464828491,0.477281421422958,0.335289716720581,0.292094498872757,-0.798974931240082,2.07470154762268
232,0.032037101686001,0.108690045773983,1.01727342605591,-0.63097882270813,-3.72510719299316,-2.25266098976135,0.645200490951538,0.477471470832825,0.336441814899445,0.24615216255188,-0.933367311954498,2.04989528656006
233,0.009794446639717,-0.13364465534687,1.0390008687973,-0.418658196926117,-3.13099193572998,-3.97808384895325,0.646519124507904,0.476821333169937,0.339884459972382,0.268463104963303,-0.888101816177368,2.02447080612183
234,0.019815040752292,-0.118969418108463,1.00636291503906,-4.32934951782227,-9.0414457321167,-5.09598112106323,0.648340463638306,0.475036144256592,0.341230124235153,0.403026938438415,-0.85038149356842,1.99649131298065
235,0.078353188931942,0.050794385373592,0.829144895076752,-8.21175575256348,-14.9549121856689,-6.59915494918823,0.64784437417984,0.475537300109863,0.342919111251831,0.238674119114876,-0.525262117385864,1.9282534122467
236,0.183142736554146,0.172082126140594,0.699398696422577,-7.89214181900024,-12.3762016296387,-7.68776941299439,0.650227904319763,0.476114094257355,0.344112813472748,0.059088069945574,-0.512511730194092,1.84369361400604
237,0.0243726875633,0.07006823271513,0.877515971660614,-14.2126483917236,-10.76256275177,-6.92683696746826,0.651160538196564,0.475591599941254,0.347621738910675,-0.024501359090209,-0.350951462984085,1.76972556114197
238,0.059378448873758,0.003030884545296,0.917770564556122,-20.1853084564209,-12.9925374984741,-7.67084741592407,0.651970982551575,0.473980098962784,0.348672568798065,-0.068595439195633,-0.178688809275627,1.70837509632111
239,-0.084466099739075,0.014158579520881,0.964737236499786,-26.773962020874,-9.76927852630615,-9.683274269104,0.652818202972412,0.4754898250103,0.349633395671844,-0.5059534907341,-0.037712521851063,1.60823726654053
240,0.126049548387527,0.105148240923882,1.10851430892944,-25.7389068603516,-9.13582611083984,-9.82420825958252,0.654863178730011,0.473270446062088,0.352065473794937,-0.569095373153687,0.005514361895621,1.52056980133057
241,0.575128674507141,-0.058258220553398,1.02975106239319,-16.5419216156006,-4.05371332168579,-10.7284364700317,0.656431496143341,0.473582535982132,0.353064984083176,-0.847043812274933,0.0643759816885,1.41803956031799
242,0.171352714300156,-0.221938014030457,0.857437670230866,-5.70055723190308,-3.8357105255127,-9.91260623931885,0.656648933887482,0.471616476774216,0.354243040084839,-0.815236210823059,0.226998850703239,1.3101304769516
243,0.057151556015015,-0.082194775342941,0.889507412910461,-1.07370543479919,4.33311557769775,-8.19511032104492,0.657648622989655,0.470720708370209,0.351295948028564,-0.815278112888336,0.234577745199203,1.22157943248749
244,-0.025902561843395,-0.017818223685026,0.896094560623169,5.34640502929688,3.58569359779358,-9.2244873046875,0.658711552619934,0.470227748155594,0.351914912462234,-0.797226667404175,0.210478022694588,1.13285195827484
245,0.235110208392143,-0.007992741651833,0.847032725811004,7.26112604141235,1.85377109050751,-8.26512050628662,0.66047340631485,0.469784468412399,0.352377146482468,-0.743963479995728,0.117618896067142,1.04792594909668
246,0.412086486816406,0.106937162578106,0.82858157157898,4.29588651657105,0.917794466018677,-7.19764280319214,0.661370754241943,0.468839257955551,0.351836889982223,-0.647791266441345,0.117235951125622,0.962734520435333
247,0.074094831943512,0.055355314165354,0.834209442138672,-1.92167389392853,-0.006419396493584,-6.87180614471436,0.663091897964478,0.467528849840164,0.351966261863708,-0.557433307170868,0.063973538577557,0.890463054180145
248,0.165720850229263,-0.072762176394463,0.838950455188751,-7.18251371383667,-9.22171115875244,-5.15555620193481,0.664345443248749,0.466928571462631,0.351976484060287,-0.59075802564621,0.104072131216526,0.82748293876648
249,0.575707197189331,-0.091652609407902,0.863612234592438,-10.4393577575684,-3.14440369606018,-4.79163837432861,0.665988802909851,0.466953843832016,0.35181525349617,-0.739259004592896,0.112542033195496,0.785403907299042
250,0.08629747480154,0.021950351074338,0.881714642047882,-10.2235832214355,-6.96977043151856,-6.18118333816528,0.667513012886047,0.467941254377365,0.35505336523056,-0.982726812362671,0.148200631141663,0.744074404239654
251,0.137208193540573,-0.000458193157101,0.935069024562836,-15.1131019592285,-3.73059606552124,-5.23246669769287,0.667012691497803,0.467227816581726,0.354998052120209,-1.10722506046295,0.348887711763382,0.664143264293671
252,-0.02503402531147,0.046397224068642,0.899788558483124,-15.5212268829346,-6.15859746932983,-6.05182504653931,0.666515588760376,0.465515702962875,0.354841768741608,-1.1528126001358,0.525280714035034,0.577744066715241
253,-0.037890732288361,0.021437274292111,0.891842186450958,-15.0133943557739,-13.3790149688721,-5.71091651916504,0.668940603733063,0.465825319290161,0.352854639291763,-1.35924577713013,0.515102624893189,0.545796096324921
254,0.098658554255962,0.139390245079994,0.918645620346069,-17.6949882507324,-5.652663230896,-5.16736841201782,0.670257449150085,0.465928971767426,0.352275162935257,-1.54510343074799,0.632507503032684,0.503140926361084
255,0.093832418322563,0.063383363187313,0.954300284385681,-10.0336246490479,-11.7559175491333,-4.96852254867554,0.671839594841003,0.465232342481613,0.351615935564041,-1.64773344993591,0.712216973304749,0.458053737878799
256,0.062794797122479,0.005496547557414,0.934424340724945,2.19618129730225,-9.10284233093262,-4.18913459777832,0.671742081642151,0.463751554489136,0.35061040520668,-1.60163044929504,0.938931107521057,0.381421446800232
257,-0.034970566630364,0.02957328222692,0.988230347633362,11.4450302124023,-5.13270473480225,-2.31155228614807,0.672913730144501,0.462309211492538,0.349841773509979,-1.44047427177429,1.00901412963867,0.341804176568985
258,0.086716309189797,-0.018052667379379,0.987757086753845,18.3607406616211,-2.82614398002625,-2.97219896316528,0.673383772373199,0.461109668016434,0.349040538072586,-1.22646856307983,1.11088693141937,0.29634565114975
259,0.134970307350159,0.005529184825718,0.956364214420319,23.977954864502,0.303163945674896,-2.58663415908813,0.676840126514435,0.462537735700607,0.348176062107086,-1.16134703159332,0.916501939296722,0.34270191192627
260,0.004779364913702,0.096503056585789,0.992481291294098,21.8157730102539,4.21083641052246,-3.21661829948425,0.67779952287674,0.460458040237427,0.346500486135483,-0.770780622959137,0.920250773429871,0.28191465139389
261,-0.11419028788805,0.158178746700287,0.932748258113861,26.3653545379639,5.82581853866577,-2.05005097389221,0.678112268447876,0.462165862321854,0.345640331506729,-0.701179206371307,0.937132835388184,0.268795698881149
262,-0.00496425665915,-0.015996737405658,0.998362600803375,24.1811771392822,7.75060176849365,-1.99192762374878,0.679506182670593,0.460985898971558,0.344556838274002,-0.366558969020843,0.839893043041229,0.239823237061501
263,0.014240748248994,0.003266346873716,0.961900591850281,19.0984230041504,9.58889198303223,-1.78451490402222,0.680967330932617,0.462060332298279,0.341282218694687,-0.263446033000946,0.717116892337799,0.253465235233307
264,-0.013245968148112,0.020364841446281,1.01154446601868,9.93764972686768,10.6069431304932,-1.96558773517609,0.682519674301147,0.460712373256683,0.340006172657013,-0.010927162133157,0.57830023765564,0.224136725068092
265,0.016262542456389,-0.026744468137622,1.00918579101563,4.29406976699829,11.2214126586914,-1.96002721786499,0.682268738746643,0.462788850069046,0.339050769805908,-0.128979116678238,0.595607340335846,0.220164969563484
266,0.071867063641548,-0.00780023727566,1.09667694568634,-1.45205843448639,13.1059923171997,-1.03534519672394,0.682969033718109,0.461620897054672,0.336581975221634,-0.017365027219057,0.512067019939423,0.180894166231155
267,0.111894503235817,0.005630156956613,1.03515136241913,-8.37745475769043,7.2173113822937,-1.16475188732147,0.68394410610199,0.462028950452805,0.335392564535141,-0.114300698041916,0.409082621335983,0.179837450385094
268,-0.078787185251713,0.117481976747513,1.07090902328491,-10.5497522354126,-0.014066762290895,-0.083486065268517,0.684832394123077,0.461102604866028,0.334241092205048,-0.136888608336449,0.3612020611763,0.157176271080971
269,-0.055724754929543,-0.000520980916917,1.05659866333008,-12.5749740600586,-0.565452039241791,-1.30010271072388,0.684664607048035,0.461181789636612,0.333274215459824,-0.27909380197525,0.455972343683243,0.146298557519913
270,0.520602762699127,-0.049937713891268,1.04834997653961,-13.7713079452515,-2.49217796325684,-1.33808541297913,0.685153543949127,0.462140262126923,0.327455282211304,-0.520989656448364,0.496495962142944,0.145868957042694
271,0.200998961925507,0.101563319563866,0.965665340423584,-7.92887496948242,-9.4202880859375,-2.75480914115906,0.685545742511749,0.462747037410736,0.326227217912674,-0.70879727602005,0.574804902076721,0.135139673948288
272,0.041008483618498,-0.036682192236185,0.970726907253265,-3.53045058250427,-2.99838423728943,-3.72725987434387,0.68555748462677,0.459693908691406,0.325147688388824,-0.506876945495606,0.700524628162384,0.037313956767321
273,-0.046654108911753,0.007845028303564,0.9857577085495,-0.726347267627716,0.102532461285591,-2.23214912414551,0.686123490333557,0.459766685962677,0.327847421169281,-0.574576497077942,0.717853486537933,0.010144089348614
274,0.01580753736198,0.059695687144995,1.04067528247833,4.6237964630127,11.3892831802368,-2.6253821849823,0.68780791759491,0.459233731031418,0.326788336038589,-0.538593471050262,0.545213758945465,-0.007651647552848
275,0.04515652358532,0.061609227210283,1.07484710216522,10.5214605331421,13.2793350219727,-1.57598042488098,0.689655780792236,0.460049659013748,0.32574787735939,-0.55431866645813,0.309723943471909,-0.005119564011693
276,0.035061981528998,0.057150144129992,1.06811785697937,12.6485366821289,16.3194675445557,-0.53529566526413,0.689939081668854,0.459774345159531,0.318840384483337,-0.430918216705322,0.212650060653686,-0.027430851012468
277,-0.071769699454308,0.077813178300858,1.10969877243042,13.8256502151489,15.6873092651367,-1.94979751110077,0.690792620182037,0.458807229995728,0.317603081464767,-0.214041694998741,0.043229687958956,-0.055015861988068
278,0.044605761766434,-0.086569592356682,1.05500471591949,16.6731433868408,10.1921043395996,-1.07833302021027,0.692277789115906,0.457907915115356,0.316385209560394,-0.011714679189026,-0.149684920907021,-0.071184560656548
279,0.460994690656662,-0.158074542880058,0.902226686477661,11.0840253829956,7.56299495697022,-2.25984072685242,0.692783772945404,0.457288056612015,0.315344363451004,0.135672599077225,-0.214815035462379,-0.094685137271881
280,0.498274475336075,-0.180334448814392,0.859422266483307,7.61511087417603,2.41735863685608,-2.37784266471863,0.693887710571289,0.457983493804932,0.313109755516052,0.124442040920258,-0.30831652879715,-0.103622362017632
281,-0.12075986713171,-0.103751920163631,0.996567010879517,-3.9171199798584,5.89022636413574,-3.7407431602478,0.695050597190857,0.458269447088242,0.311832547187805,0.080200277268887,-0.392156690359116,-0.126471623778343
282,0.200262367725372,-0.128770753741264,1.03577184677124,-3.92546319961548,3.33630847930908,-4.44860792160034,0.697393596172333,0.456390589475632,0.310267418622971,0.207913294434547,-0.591562449932098,-0.173873841762543
283,0.136785238981247,-0.119431383907795,1.06834733486176,-7.42986249923706,0.169323056936264,-5.05843830108643,0.698079586029053,0.456136584281921,0.308599591255188,0.136539965867996,-0.571398377418518,-0.220476254820824
284,0.163854971528053,-0.016570553183556,1.10369372367859,-6.21296882629395,-3.36764121055603,-2.6097195148468,0.698501586914063,0.455757826566696,0.307449668645859,0.066178552806377,-0.499528527259827,-0.261318027973175
285,-0.077927567064762,-0.081083782017231,1.02411460876465,-3.51031279563904,-7.78132247924805,-1.01177942752838,0.698719203472137,0.455196380615234,0.306404113769531,0.033160675317049,-0.376213610172272,-0.282183766365051
286,0.01861485093832,-0.071312539279461,1.0018630027771,0.553099870681763,-10.9466772079468,0.139891147613525,0.698927819728851,0.453765243291855,0.306260168552399,0.120558597147465,-0.218332231044769,-0.29319304227829
287,0.085891552269459,-0.186408400535584,1.06478106975555,1.36005008220673,-5.6345362663269,2.58942055702209,0.701442301273346,0.453545987606049,0.305158674716949,0.09376572817564,-0.308913379907608,-0.277561485767364
288,0.087814152240753,-0.026289850473404,1.24650633335114,2.21265482902527,-3.93783068656921,5.02298307418823,0.701186656951904,0.453355073928833,0.304385334253311,0.09627690911293,-0.122947812080383,-0.242205411195755
289,0.049461536109448,0.152297511696816,1.24753713607788,-0.54638135433197,-0.158817872405052,4.84830093383789,0.7031369805336,0.452694267034531,0.30768820643425,0.141794070601463,-0.197762981057167,-0.192130491137505
290,-0.18757988512516,0.164439469575882,1.15430819988251,-6.63559722900391,-4.5643253326416,6.04952812194824,0.705045640468597,0.453079730272293,0.307368010282516,0.028081124648452,-0.258910566568375,-0.136665418744087
291,-0.08393294364214,0.172125667333603,1.13569688796997,-7.53598880767822,-2.50190496444702,6.43833541870117,0.707152664661408,0.452763646841049,0.307122021913528,-0.049281686544418,-0.329145669937134,-0.073141939938068
292,0.035186372697353,0.055585909634829,1.16712558269501,-6.96565389633179,3.57893824577332,7.70737266540527,0.707362234592438,0.453125149011612,0.307327061891556,-0.190105438232422,-0.218576803803444,0.000228944496484
293,0.027735646814108,0.149876520037651,1.18643438816071,-6.39803838729858,2.07687449455261,7.30694198608398,0.708818018436432,0.452788501977921,0.306998252868652,-0.24397785961628,-0.275578409433365,0.075823538005352
294,0.013307629153133,0.23074197769165,1.18125188350678,-5.97408819198608,-0.854811251163483,6.17547559738159,0.708733320236206,0.45156717300415,0.307480752468109,-0.207728937268257,-0.147483125329018,0.148157373070717
295,0.272624939680099,0.055865935981274,1.12993383407593,-0.655940651893616,-6.4577260017395,4.34050750732422,0.709056317806244,0.451405555009842,0.308056682348251,-0.259503304958343,-0.035838961601257,0.203391149640083
296,0.503206729888916,0.04541252553463,0.990380167961121,10.490758895874,-12.5668983459473,0.520302653312683,0.710350453853607,0.45006200671196,0.310673236846924,-0.118790924549103,0.011866180226207,0.234846591949463
297,0.101614125072956,0.004244332201779,0.963880777359009,10.149359703064,-19.1316986083984,-0.702017068862915,0.711511015892029,0.450076788663864,0.311462968587875,-0.071623630821705,0.141135692596436,0.235261797904968
298,-0.060317263007164,0.029188733547926,1.00868964195251,6.75590562820435,-13.4667863845825,-1.3175003528595,0.712239921092987,0.449726670980454,0.31223264336586,0.013271935284138,0.325905114412308,0.224969670176506
299,-0.109327778220177,-0.035855192691088,1.14378345012665,0.758155941963196,-6.2711935043335,-3.57451796531677,0.713423430919647,0.448928236961365,0.318859815597534,0.095543593168259,0.422219812870026,0.201122105121612
300,0.036949805915356,-0.037952203303576,1.0706934928894,-4.84627199172974,-3.26612210273743,-6.41237831115723,0.714852154254913,0.447959572076798,0.320009887218475,0.148166477680206,0.435739308595657,0.146967381238937
301,0.03515837341547,0.018975345417857,0.992369830608368,-11.6426124572754,6.01442909240723,-6.70927619934082,0.716238915920258,0.448668837547302,0.321340680122375,-0.060730222612619,0.391621232032776,0.083465553820133
302,-0.004855806939304,-0.050894804298878,0.907645046710968,-17.911283493042,14.7062015533447,-6.90251588821411,0.717369437217712,0.447678327560425,0.322602033615112,-0.136526063084602,0.279475748538971,0.009758301079273
303,0.273124843835831,0.008928523398936,0.794127345085144,-16.7496643066406,14.2959995269775,-6.98649024963379,0.719103813171387,0.446777373552322,0.319964796304703,-0.259363502264023,0.043945450335741,-0.061766345053911
304,0.112726904451847,-0.178059965372086,0.791554272174835,-14.0398120880127,16.1444129943848,-7.78686714172363,0.719478189945221,0.445788979530335,0.320890963077545,-0.380225300788879,-0.032974377274513,-0.138804450631142
305,-0.02662505209446,-0.442052781581879,0.769253432750702,-13.3346567153931,8.02936363220215,-7.91363859176636,0.720068514347076,0.445185333490372,0.321612536907196,-0.54623281955719,-0.123516090214252,-0.219992056488991
306,0.027874505147338,-0.388636976480484,0.873730778694153,-9.02208614349365,-3.41068387031555,-7.96139860153198,0.72008341550827,0.445102035999298,0.319539338350296,-0.716046690940857,-0.076451987028122,-0.297160983085632
307,0.064549833536148,-0.091787494719029,0.942534625530243,-3.61711502075195,-6.56207513809204,-9.96316051483154,0.72059977054596,0.443879693746567,0.319758802652359,-0.730905592441559,-0.019768994301558,-0.38639697432518
308,0.007877589203417,-0.017546441406012,1.00692510604858,1.85600996017456,-4.929847240448,-9.84759426116943,0.722284495830536,0.443517863750458,0.319830805063248,-0.781692028045654,-0.063225217163563,-0.483858585357666
309,0.271440833806992,0.02930985763669,0.961080312728882,5.15510892868042,-8.49217319488525,-10.1017446517944,0.723370969295502,0.443019300699234,0.325877577066421,-0.75270289182663,-0.003643382107839,-0.588903546333313
310,0.241646811366081,0.019239464774728,0.978155672550201,8.07187080383301,-8.84092998504639,-9.29160404205322,0.72432404756546,0.442513734102249,0.326311707496643,-0.692031741142273,0.080164894461632,-0.684820175170898
311,0.125739336013794,0.03805436193943,1.04375851154327,8.88644886016846,-8.33854866027832,-8.70944213867188,0.72452586889267,0.440418422222138,0.326742738485336,-0.456755101680756,0.24337574839592,-0.783681333065033
312,0.087356269359589,0.073016867041588,1.09648394584656,8.9088830947876,3.5773823261261,-8.42357158660889,0.725717127323151,0.439778625965118,0.327156722545624,-0.36855760216713,0.269739806652069,-0.86709201335907
313,-0.093117393553257,-0.05299561098218,1.09624063968658,3.7719931602478,9.51246929168701,-6.88527536392212,0.727273225784302,0.439265459775925,0.328993946313858,-0.311235278844833,0.195531144738197,-0.941364884376526
314,-0.099666260182858,-0.117141209542751,1.00639367103577,-3.12413048744202,4.29261922836304,-6.968581199646,0.727465450763702,0.43915867805481,0.329729050397873,-0.345028579235077,0.230010986328125,-1.01435792446136
315,-0.076753787696362,-0.006951035931706,0.932466089725494,-13.4591426849365,-2.46957921981812,-6.5624098777771,0.728417813777924,0.439663499593735,0.33045756816864,-0.518157839775085,0.205997869372368,-1.08333480358124
316,0.126052737236023,0.067639015614987,0.934512138366699,-15.9126596450806,8.35736179351807,-6.10671091079712,0.729377090930939,0.440475016832352,0.332666218280792,-0.768332839012146,0.187814965844154,-1.14404380321503
317,0.123604789376259,-0.022029004991055,0.945525288581848,-13.2495040893555,0.12241330742836,-5.69429636001587,0.729734182357788,0.440049022436142,0.333378076553345,-0.919353425502777,0.192058563232422,-1.20352518558502
318,0.057596880942583,-0.20972466468811,0.833266377449035,-2.37762117385864,2.43960499763489,-5.92753410339356,0.730791866779327,0.440115958452225,0.333985209465027,-1.06970191001892,0.148727968335152,-1.25844621658325
319,0.056529838591814,-0.142403677105904,0.869459748268127,-0.148664772510529,9.59636688232422,-4.64031457901001,0.732791841030121,0.440319955348969,0.332485973834991,-1.14120995998383,-0.029532693326473,-1.29999876022339
320,-0.047887656837702,-0.010846335440874,0.939162731170654,12.720552444458,4.73400259017944,-3.92183399200439,0.73352438211441,0.438474804162979,0.332811802625656,-0.951073467731476,-0.113996386528015,-1.35394513607025
321,0.35009890794754,-0.017674943432212,0.949062585830688,17.3167705535889,18.2466487884521,-1.43247497081757,0.734562754631043,0.438198745250702,0.333003312349319,-0.809305369853973,-0.260116875171661,-1.38417506217957
322,0.358039051294327,0.106595098972321,1.06306254863739,20.7423515319824,17.1904945373535,0.966155409812927,0.736042022705078,0.43678629398346,0.335385471582413,-0.514244437217712,-0.498852014541626,-1.38945281505585
323,0.143295571208,0.275829046964645,1.15747475624084,26.4964618682861,16.3896160125732,3.06140804290771,0.737371206283569,0.436410933732986,0.335667312145233,-0.258957386016846,-0.698303639888763,-1.37209320068359
324,0.117855861783028,0.282911270856857,1.2340635061264,20.3646011352539,11.9674940109253,4.76774835586548,0.738241910934448,0.43465718626976,0.336027532815933,0.109627597033978,-0.804956018924713,-1.33491969108582
325,0.082098886370659,0.328415423631668,1.19632339477539,5.78111362457275,5.9543890953064,6.23265695571899,0.738622963428497,0.436502635478973,0.33692541718483,0.055111847817898,-0.787342429161072,-1.28758835792542
326,0.270553439855576,0.348287165164947,1.14857685565948,-3.63334560394287,-3.20111274719238,7.2933406829834,0.739188551902771,0.435973316431046,0.341864317655563,0.128795370459557,-0.704743623733521,-1.22758150100708
327,0.307481527328491,0.11404300481081,1.01766705513,-3.51379060745239,-20.5905666351318,7.28721141815186,0.739181101322174,0.436151087284088,0.343107521533966,0.050332624465227,-0.48262482881546,-1.16106843948364
328,0.179623693227768,0.137003690004349,0.917677462100983,-6.8254075050354,-21.8471221923828,6.431236743927,0.739228904247284,0.436501979827881,0.344379246234894,-0.064726084470749,-0.175732359290123,-1.09947693347931
329,0.30717146396637,0.16482113301754,0.831814289093018,-1.84027683734894,-25.6698017120361,4.85302495956421,0.741626799106598,0.435958236455917,0.33972755074501,-0.091029107570648,-0.07443817704916,-1.02840983867645
330,0.20941162109375,-0.156404882669449,0.923396408557892,-8.04006576538086,-22.6457481384277,5.03161954879761,0.741109907627106,0.436378329992294,0.340460866689682,-0.22072272002697,0.34014493227005,-0.982246696949005
331,0.232539355754852,-0.238551273941994,0.788697481155396,0.750899493694305,-13.4810771942139,3.22714114189148,0.743265450000763,0.434818029403686,0.34097284078598,-0.14180038869381,0.40270385146141,-0.934042513370514
332,-0.157107844948769,-0.331127405166626,0.730523765087128,0.429830700159073,-7.50559902191162,2.62936449050903,0.743319869041443,0.434877991676331,0.345601499080658,-0.179221421480179,0.623610615730285,-0.906124770641327
333,-0.115230455994606,-0.273298293352127,0.834397792816162,2.70541429519653,-5.04956436157227,1.29643487930298,0.744332134723663,0.434702545404434,0.346028208732605,-0.199575647711754,0.631444156169891,-0.886647045612335
334,0.106918901205063,-0.126261502504349,0.990346729755402,1.57179486751556,4.71640968322754,-0.367383807897568,0.745135486125946,0.433756798505783,0.346278816461563,-0.116938956081867,0.600629448890686,-0.883034467697144
335,0.206781312823296,0.078652232885361,1.16222977638245,1.21644151210785,16.622371673584,-2.37307000160217,0.747332334518433,0.434348672628403,0.34649384021759,-0.184639751911163,0.347269654273987,-0.894012451171875
336,0.385328441858292,0.145839810371399,1.15817749500275,3.05513453483582,26.1185417175293,-3.15964317321777,0.748209893703461,0.434099107980728,0.34629899263382,-0.160821348428726,0.145588517189026,-0.92319256067276
337,0.747390687465668,-0.164251729846001,1.11645090579987,5.65153408050537,22.4602546691895,-4.50776767730713,0.747297644615173,0.433720886707306,0.346887230873108,-0.11502755433321,0.096247784793377,-0.964168548583984
338,0.532970905303955,-0.086825303733349,1.02724587917328,2.43949127197266,11.9100770950317,-6.37384128570557,0.74801766872406,0.43278181552887,0.347448140382767,-0.008873791433871,-0.072216369211674,-1.01941251754761
339,0.076954491436482,-0.043053694069386,1.0019006729126,2.20693445205688,14.60826587677,-6.15078067779541,0.748842537403107,0.432789176702499,0.349630534648895,-0.023185335099697,-0.172581762075424,-1.08256185054779
340,-0.11181166768074,-0.091207884252071,0.986500799655914,-3.58492112159729,11.7180852890015,-6.62014198303223,0.750768899917603,0.433189421892166,0.350276321172714,-0.104229040443897,-0.383914113044739,-1.14345300197601
341,0.077888436615467,-0.230096980929375,0.939321875572205,-6.57701778411865,8.08871364593506,-7.19691276550293,0.751611709594727,0.433714330196381,0.350971430540085,-0.249038472771645,-0.428293764591217,-1.21169400215149
342,0.061977185308933,-0.382833391427994,0.962912499904633,-9.81697273254395,-1.50371444225311,-9.19070148468018,0.753535449504852,0.432448416948319,0.34513783454895,-0.238117650151253,-0.529926002025604,-1.29538345336914
343,0.17595063149929,-0.32270872592926,0.914768397808075,-17.1942882537842,-8.85040378570557,-9.6467227935791,0.752949178218842,0.432841598987579,0.345512688159943,-0.46441638469696,-0.312875956296921,-1.38730323314667
344,-0.041022811084986,-0.234024062752724,0.965944349765778,-16.5158786773682,-6.76851892471314,-9.52657794952393,0.755487680435181,0.430883407592773,0.345591843128204,-0.472782045602798,-0.376916497945785,-1.48123908042908
345,-0.177101507782936,-0.327482521533966,1.05213987827301,-14.2701044082642,-8.11548328399658,-11.0650148391724,0.754965126514435,0.431749224662781,0.349259197711945,-0.760745167732239,-0.135442316532135,-1.57821047306061
346,-0.187313169240952,-0.370937168598175,1.07183492183685,-11.5238380432129,-11.4088497161865,-10.1369371414185,0.756350755691528,0.431443691253662,0.349638253450394,-0.882538139820099,-0.081301532685757,-1.68407332897186
347,-0.087779946625233,-0.720908164978027,1.06994462013245,-3.15233182907104,-19.2506122589111,-11.0654039382935,0.755130708217621,0.431392848491669,0.350216388702393,-0.965191066265106,0.276074767112732,-1.79582393169403
348,0.110480919480324,-0.581405460834503,1.07335984706879,4.14403200149536,-20.7219734191895,-10.3998289108276,0.757948577404022,0.430920094251633,0.350714266300201,-0.935033082962036,0.259990990161896,-1.90327608585358
349,0.125914111733437,-0.116137072443962,1.15396559238434,6.55679655075073,-14.387734413147,-10.4824323654175,0.757037103176117,0.429397076368332,0.344582855701447,-0.758465170860291,0.581687092781067,-2.01531934738159
350,0.077168069779873,0.207654342055321,1.17524254322052,11.0711488723755,-3.02860713005066,-10.8156776428223,0.760091364383698,0.429307520389557,0.344886898994446,-0.679211556911469,0.462303400039673,-2.11404228210449
351,0.047404665499926,0.142668887972832,1.01523697376251,9.61816024780273,1.83327317237854,-10.3897590637207,0.760339558124542,0.429675430059433,0.345367878675461,-0.618335068225861,0.546009421348572,-2.22383785247803
352,0.090277455747128,0.167901948094368,0.976577341556549,-1.21217131614685,14.8121681213379,-9.6881628036499,0.761273920536041,0.429701030254364,0.343448102474213,-0.58107340335846,0.498440980911255,-2.32476568222046
353,0.084042944014073,0.182603180408478,0.985703945159912,0.358779430389404,15.3431177139282,-8.918625831604,0.762161791324616,0.429756671190262,0.343766301870346,-0.607590556144714,0.370264440774918,-2.41646456718445
354,0.318124741315842,-0.272347301244736,0.810106933116913,-3.32293653488159,14.6796960830688,-8.70792388916016,0.763119697570801,0.430329918861389,0.344037771224976,-0.693771183490753,0.243143245577812,-2.50181460380554
355,0.066831238567829,-0.161338105797768,0.66919469833374,-6.23597002029419,12.6435041427612,-8.89032077789307,0.76394122838974,0.430442422628403,0.341413885354996,-0.792096018791199,0.117995232343674,-2.58677339553833
356,-0.063662692904472,-0.010063926689327,0.62317955493927,-11.8664102554321,9.4586820602417,-9.34419918060303,0.764701247215271,0.431645721197128,0.341047406196594,-1.03853809833527,0.021810734644532,-2.6684136390686
357,-0.116187028586864,-0.024639245122671,0.668032467365265,-17.7225112915039,7.36870813369751,-9.45886707305908,0.7652508020401,0.43124583363533,0.340418457984924,-1.16746878623962,-0.040919214487076,-2.76171112060547
358,-0.013950414024294,-0.057581692934036,0.858148515224457,-17.6631278991699,5.88146686553955,-8.33293437957764,0.767343759536743,0.432241767644882,0.339275658130646,-1.43326818943024,-0.219727739691734,-2.8391695022583
359,-0.000832213030662,-0.007658390793949,0.982981622219086,-9.29268360137939,2.26062989234924,-7.75640869140625,0.767439603805542,0.431770950555801,0.338823050260544,-1.5220388174057,-0.187090992927551,-2.92983222007751
360,0.036370441317558,-0.070347636938095,1.04604732990265,-1.5282895565033,-5.41479301452637,-6.94736671447754,0.766241788864136,0.431133538484573,0.337917774915695,-1.51389980316162,-0.003893136745319,-3.02894043922424
361,0.14991220831871,-0.028874792158604,1.17863011360168,8.96223640441895,-8.39941024780273,-7.14138793945313,0.767517864704132,0.430086702108383,0.336885035037994,-1.33616244792938,-0.008956027217209,-3.0985803604126
362,0.12627799808979,0.274942398071289,1.31539130210876,15.3483362197876,-1.30846083164215,-7.63848400115967,0.770565867424011,0.429266214370728,0.328673452138901,-1.12348735332489,-0.195166707038879,-3.14418697357178
363,0.122792333364487,0.308807581663132,1.24191081523895,16.8280448913574,7.19659328460693,-8.17524337768555,0.770814299583435,0.429428398609161,0.327607542276382,-0.95222395658493,-0.133441060781479,-3.23126149177551
364,-0.179720774292946,0.23868802189827,1.1560549736023,23.3808670043945,3.18207025527954,-8.95723056793213,0.77155864238739,0.430141031742096,0.326730847358704,-0.821500182151794,-0.141775339841843,-3.31777167320251
365,-0.294983208179474,0.028446406126022,0.926461398601532,19.7534503936768,-1.42835283279419,-8.74816417694092,0.772219896316528,0.430562615394592,0.326682031154633,-0.63526862859726,-0.100191943347454,-3.40709924697876
366,-0.279607534408569,-0.175114557147026,0.95439887046814,11.3582334518433,-5.12601757049561,-7.34597444534302,0.773569226264954,0.43079936504364,0.325923174619675,-0.494549810886383,-0.110749274492264,-3.47965168952942
367,0.010069742798805,-0.103282816708088,1.01170933246613,-1.99599754810333,-3.58377528190613,-6.29101943969727,0.774177551269531,0.43169492483139,0.325187772512436,-0.508719861507416,-0.034927852451801,-3.55501270294189
368,-0.023733153939247,0.07270897179842,1.08503258228302,-1.64300572872162,-3.32109260559082,-7.05095958709717,0.775591015815735,0.433296203613281,0.324364185333252,-0.660621225833893,-0.041639320552349,-3.61660718917847
369,0.007222570013255,0.08012081682682,1.03669035434723,0.998782277107239,-2.49429750442505,-6.35435771942139,0.777861058712006,0.434577226638794,0.321231067180634,-0.766124486923218,-0.135987371206284,-3.67216014862061
370,0.013648162595928,-0.00494457129389,1.05032134056091,2.70106077194214,1.09209406375885,-7.38283681869507,0.777234613895416,0.434363842010498,0.320682168006897,-0.678780078887939,0.043034918606281,-3.75286889076233
371,0.006114762276411,0.022319098934531,0.994946360588074,3.76039433479309,-0.0743757635355,-5.80011415481567,0.778104424476624,0.434650987386704,0.319952577352524,-0.633787751197815,0.034007884562016,-3.82117509841919
372,0.016872445121408,0.044888317584992,1.00600731372833,4.20496988296509,-5.81551742553711,-3.96611857414246,0.778970062732697,0.435045510530472,0.317477762699127,-0.579156696796417,0.027420543134213,-3.87372183799744
373,0.162184461951256,0.069046966731548,1.0108003616333,8.69443798065186,-0.304990231990814,-4.00548887252808,0.778852760791779,0.434565305709839,0.316754341125488,-0.434689283370972,0.117435023188591,-3.92016243934631
374,0.23968979716301,-0.006554342806339,0.999987483024597,11.8353834152222,6.7934422492981,-3.16027283668518,0.779810786247253,0.435414046049118,0.315927952528,-0.382276356220245,0.084818474948406,-3.95493960380554
375,0.148711338639259,-0.116288602352142,0.999531030654907,11.2362852096558,6.24394941329956,-2.57621717453003,0.780254006385803,0.436197608709335,0.315795212984085,-0.303153872489929,0.06614226102829,-3.98610925674438
376,-0.015456824563444,-0.066881783306599,0.997247636318207,13.5989933013916,-2.32656073570251,-2.63856887817383,0.78053492307663,0.43766912817955,0.315027087926865,-0.271688222885132,0.089296385645866,-4.01596593856812
377,0.039065267890692,-0.060672525316477,1.0330650806427,10.3285531997681,-3.31610178947449,-1.44893646240234,0.781221091747284,0.438261568546295,0.314266711473465,-0.145342901349068,0.105904892086983,-4.03838539123535
378,0.121758662164211,0.069965422153473,1.10249483585358,8.95556735992432,3.08167266845703,-1.06112945079803,0.783473432064056,0.438967496156693,0.313447147607803,-0.060943305492401,-0.015385213308036,-4.0476245880127
379,0.084075063467026,0.04595922678709,1.12692427635193,6.31951904296875,-1.58870196342468,0.391912758350372,0.784276008605957,0.438280701637268,0.310519486665726,0.129180207848549,-0.028935741633177,-4.0518159866333
380,-0.074855916202068,0.039519861340523,1.06044578552246,3.68010258674622,-0.044467154890299,1.72072100639343,0.785911381244659,0.439398288726807,0.309789657592773,0.111393488943577,-0.090884909033775,-4.03592824935913
381,0.021615900099278,0.024259392172098,1.08398723602295,2.76908302307129,-0.288208991289139,3.30081248283386,0.785936057567596,0.440648883581162,0.309280335903168,0.083399496972561,0.007073080632836,-4.01090860366821
382,-0.056604981422424,0.064245991408825,1.07476842403412,4.48865127563477,4.52780151367188,3.52007031440735,0.785895705223084,0.441097319126129,0.305576741695404,0.13084252178669,0.081531792879105,-3.97690439224243
383,0.005136044695973,0.025781136006117,1.03412544727325,8.92397403717041,1.15488052368164,4.598069190979,0.787760257720947,0.441235840320587,0.30490192770958,0.231269344687462,-0.076298125088215,-3.938236951828
384,-0.054875176399946,-0.058375548571348,0.981728076934814,8.73926258087158,0.874176323413849,6.35890960693359,0.788042604923248,0.442097514867783,0.304347574710846,0.294461905956268,-0.049635246396065,-3.88116335868835
385,0.18248063325882,0.021485432982445,1.07925355434418,7.62235307693481,7.20806550979614,5.82150745391846,0.789972484111786,0.44429424405098,0.30303031206131,0.213855743408203,-0.194725543260574,-3.82491302490234
386,-0.009181217290461,0.061872497200966,1.02555012702942,11.0264453887939,5.03423118591309,4.04713773727417,0.790532827377319,0.445204317569733,0.302463263273239,0.284441113471985,-0.225857347249985,-3.77222275733948
387,-0.02486221678555,-0.150035351514816,1.04802238941193,13.3755178451538,-1.27878034114838,5.13453769683838,0.790722846984863,0.445189505815506,0.302036553621292,0.483904421329498,-0.188642844557762,-3.72356152534485
388,0.040952913463116,-0.157923474907875,1.1660715341568,9.83774757385254,2.69981789588928,3.92861843109131,0.790508270263672,0.444355487823486,0.299787700176239,0.767510890960693,-0.084108673036099,-3.67316579818726
389,-0.016201086342335,-0.011281933635473,1.2015974521637,8.30912399291992,3.47908782958984,1.85226690769196,0.792134702205658,0.44587367773056,0.299311846494675,0.738176882266998,-0.178599908947945,-3.64891219139099
390,-0.095083862543106,-0.018039224669337,1.13621056079865,6.06519222259522,-3.45515584945679,0.455175995826721,0.792911767959595,0.446735620498657,0.299056351184845,0.790006875991821,-0.172452718019486,-3.63769888877869
391,-0.106649212539196,-0.083557650446892,1.10165536403656,6.53710842132568,-1.71794927120209,0.232031792402267,0.794118404388428,0.447463691234589,0.298953711986542,0.821835100650787,-0.169154524803162,-3.63599681854248
392,0.040859494358301,0.090093553066254,1.12884783744812,1.90162456035614,5.60095167160034,-0.021837642416358,0.794589042663574,0.448661178350449,0.300021111965179,0.808127045631409,-0.125345110893249,-3.62456941604614
393,-0.096639856696129,0.254878848791122,1.06236588954926,3.16846489906311,5.27293157577515,-0.258626520633697,0.794983863830566,0.448588371276856,0.300257951021194,0.935645461082458,-0.131891816854477,-3.61464905738831
394,-0.029806599020958,0.022963812574744,1.03070962429047,1.35879266262054,5.51712274551392,1.34815609455109,0.797338426113129,0.448197960853577,0.30036786198616,1.04433798789978,-0.386724948883057,-3.64035320281982
395,-0.036773256957531,0.113787241280079,1.08993232250214,1.0402729511261,11.9969854354858,1.66274404525757,0.79816061258316,0.44950994849205,0.302155822515488,0.966518759727478,-0.43294620513916,-3.62444353103638
396,-0.103205598890781,0.14207050204277,1.07878708839417,2.03793692588806,11.1809072494507,0.958061695098877,0.79945182800293,0.449531525373459,0.302554965019226,1.02710568904877,-0.577198147773743,-3.61448645591736
397,-0.02606581710279,-0.128817200660706,0.964398980140686,-0.435024112462997,2.44328379631042,1.46248340606689,0.799664497375488,0.449211031198502,0.303197234869003,1.12798285484314,-0.566735923290253,-3.57519578933716
398,-0.090130440890789,-0.305540710687637,0.959611594676971,-2.57114458084106,-2.76443982124329,2.32239484786987,0.799594879150391,0.449480772018433,0.299866884946823,1.12317931652069,-0.472424209117889,-3.53601360321045
399,-0.04109837859869,0.001932391198352,1.08132791519165,-3.42878723144531,0.718391180038452,0.965524077415466,0.801091372966766,0.450184166431427,0.300061047077179,1.02802741527557,-0.538963496685028,-3.54460525512695
400,0.03054147399962,0.174235135316849,1.10710954666138,-3.66827464103699,3.88826751708984,0.12811391055584,0.801495373249054,0.451793491840363,0.300420790910721,0.842947840690613,-0.481594860553742,-3.52992749214172
401,-0.073645450174809,-0.004643535707146,0.89055061340332,-2.75586795806885,-1.53275501728058,0.639313220977783,0.803418934345245,0.451749920845032,0.300687313079834,0.829802095890045,-0.638236463069916,-3.54915356636047
402,-0.026745986193419,-0.225165247917175,0.823159217834473,-3.50241804122925,-4.82632970809937,1.47307932376862,0.804633021354675,0.4520323574543,0.29931965470314,0.803709506988525,-0.656542956829071,-3.55049681663513
403,0.131343737244606,-0.204852685332298,0.986328303813934,-6.57445573806763,-2.09062242507935,1.90143227577209,0.805439054965973,0.452475488185883,0.299420595169067,0.741595149040222,-0.603888928890228,-3.52974152565002
404,0.161189377307892,-0.068664327263832,1.02308177947998,-6.19413232803345,4.23042869567871,1.54796397686005,0.806337535381317,0.452249109745026,0.299498975276947,0.751266419887543,-0.600665748119354,-3.50335049629211
405,0.104399375617504,-0.095252610743046,0.969874203205108,-3.4511616230011,-0.327881723642349,1.57442879676819,0.80642169713974,0.452686578035355,0.300157397985458,0.69327449798584,-0.507272064685822,-3.46171951293945
406,-0.048065297305584,-0.156117290258408,0.942891955375671,-5.29130029678345,-4.59308004379272,2.2852954864502,0.808894217014313,0.452669441699982,0.300072818994522,0.642102181911469,-0.681874394416809,-3.48467779159546
407,0.051001973450184,-0.193237736821175,0.979450345039368,-4.64098596572876,-4.04677152633667,1.88577771186829,0.808999121189117,0.453118205070496,0.300250142812729,0.592103958129883,-0.52690577507019,-3.44155025482178
408,0.195771291851997,-0.123413816094399,1.13411223888397,-2.98566555976868,6.77717256546021,1.04576814174652,0.810723781585693,0.453183025121689,0.301136672496796,0.557227492332459,-0.609556972980499,-3.44146513938904
409,0.192816734313965,-0.007666592020541,1.0728657245636,-1.95299792289734,2.47427344322205,0.529721617698669,0.812176406383514,0.452485918998718,0.301279127597809,0.629625201225281,-0.703662276268005,-3.43211269378662
410,-0.119347967207432,-0.003257738426328,1.12061250209808,-1.87044489383698,0.081963703036308,-0.144759640097618,0.812998592853546,0.452591240406036,0.301609009504318,0.636429309844971,-0.675114750862122,-3.42343091964722
411,0.187914371490478,0.292859941720962,1.06132280826569,-1.8618448972702,-3.31321215629578,-0.777337908744812,0.81361848115921,0.452621847391129,0.301027208566666,0.641796588897705,-0.617714464664459,-3.41216564178467
412,0.435642004013061,0.337267607450485,1.03651797771454,-0.707454442977905,1.51784229278564,-2.27588677406311,0.81501966714859,0.452473133802414,0.301367402076721,0.653684198856354,-0.640668213367462,-3.42732286453247
413,0.060172151774168,0.146602988243103,1.10210227966309,1.01940155029297,-0.356904774904251,-1.74850583076477,0.816253185272217,0.452253729104996,0.301765561103821,0.689508318901062,-0.653014600276947,-3.44416046142578
414,0.013904925435782,0.056594502180815,1.06034111976624,0.076808989048004,-5.60326194763184,-2.078289270401,0.817351400852203,0.452680736780167,0.302283376455307,0.658793985843658,-0.610164403915405,-3.47146773338318
415,-0.181034356355667,0.244365021586418,1.07625114917755,-0.713865399360657,-10.6640644073486,-2.36509013175964,0.819531917572022,0.452395379543304,0.304010301828384,0.693009555339813,-0.660399079322815,-3.51427102088928
416,0.139670208096504,0.409228384494782,0.874345362186432,2.18662405014038,-10.3260688781738,-2.9703643321991,0.819767594337463,0.452371150255203,0.304835587739944,0.729035794734955,-0.44234225153923,-3.51757645606995
417,0.068892650306225,0.143448173999786,0.876976847648621,3.37453246116638,-9.8780517578125,-3.45661783218384,0.821354627609253,0.452076286077499,0.305373460054398,0.778661012649536,-0.389761537313461,-3.55733346939087
418,0.045049745589495,-0.177192911505699,0.828621923923492,0.07690604031086,-7.94115161895752,-3.60915899276733,0.822563529014587,0.45207890868187,0.3083256483078,0.783361077308655,-0.287077873945236,-3.59363174438477
419,-0.132121503353119,-0.233320668339729,0.946600675582886,-7.04770660400391,-5.54424667358398,-3.07666301727295,0.824475526809692,0.452318400144577,0.308714300394058,0.700072467327118,-0.301748752593994,-3.64829111099243
420,-0.117448233067989,-0.031851448118687,1.09610259532928,-12.9906997680664,-3.12768912315369,-3.36777019500732,0.825269401073456,0.452964216470718,0.309182852506638,0.539318561553955,-0.199698835611343,-3.67769122123718
421,0.031640291213989,0.161610037088394,0.992742717266083,-9.93347263336182,-0.185436606407166,-4.5574107170105,0.826729834079742,0.45273432135582,0.308049976825714,0.455273658037186,-0.219154372811317,-3.72100186347961
422,-0.090004332363606,0.068259604275227,0.958888411521912,-3.14411449432373,1.85328304767609,-4.73937797546387,0.826980590820313,0.453074842691422,0.308541685342789,0.35273614525795,-0.108198150992394,-3.74776339530945
423,0.07474023103714,-0.181107953190804,0.804070115089417,0.71988320350647,2.2686493396759,-4.48240566253662,0.82913738489151,0.452860534191132,0.308769226074219,0.323007941246033,-0.234781414270401,-3.81283640861511
424,-0.074653394520283,-0.49277850985527,0.958210349082947,1.25461268424988,-0.647023439407349,-4.05181217193604,0.830397427082062,0.452045738697052,0.308992028236389,0.410973370075226,-0.245205238461494,-3.85246157646179
425,0.058332744985819,-0.368677705526352,0.978197336196899,0.281450271606445,-4.96892070770264,-2.72471618652344,0.831567823886871,0.451984018087387,0.30878621339798,0.416727364063263,-0.206241473555565,-3.88983988761902
426,0.039354335516691,-0.075501352548599,1.07203888893127,-0.590098142623901,-10.0543622970581,-2.41256666183472,0.832559704780579,0.45190566778183,0.308927595615387,0.417494744062424,-0.117448844015598,-3.91386008262634
427,0.154878064990044,0.174657374620438,1.00414526462555,0.868414580821991,-12.1291446685791,-2.75886011123657,0.833446979522705,0.451788723468781,0.309118807315826,0.42827096581459,0.011665930971503,-3.93665623664856
428,0.096508629620075,0.025592220947147,1.01605451107025,3.62684535980225,-8.07998275756836,-2.87536859512329,0.834599137306213,0.451470822095871,0.311671823263168,0.462307989597321,0.122596368193626,-3.96404981613159
429,0.476449817419052,-0.151866853237152,1.09427881240845,3.19685912132263,-0.117117211222649,-2.78916335105896,0.836614191532135,0.450526565313339,0.311914145946503,0.569279134273529,0.085312522947788,-4.00130176544189
430,0.536263704299927,-0.221265077590942,1.03962290287018,1.16334474086761,-0.022673282772303,-2.00511860847473,0.838769018650055,0.449776142835617,0.312165945768356,0.624256908893585,0.004311142954975,-4.03794431686401
431,0.340127259492874,-0.161925926804543,1.10770285129547,-3.91306805610657,-4.66690492630005,-2.47297596931458,0.839223384857178,0.450150847434998,0.311867356300354,0.539680242538452,0.127366274595261,-4.04976558685303
432,0.20710651576519,-0.006828289013356,1.01582908630371,-10.3567314147949,-10.9081115722656,-2.14016532897949,0.840186059474945,0.450726121664047,0.312406748533249,0.385327070951462,0.242785811424255,-4.07014179229736
433,0.020337363705039,0.073965325951576,1.03143215179443,-13.1214237213135,-6.87985372543335,-2.03416132926941,0.84138149023056,0.451503545045853,0.312956064939499,0.176395237445831,0.336184293031692,-4.09072637557983
434,0.101032093167305,0.186357125639915,1.10955059528351,-15.8969717025757,-1.46954274177551,-1.80460166931152,0.84296715259552,0.452086746692658,0.313465178012848,-0.047718357294798,0.353713601827621,-4.11217832565308
435,0.268226653337479,0.25322213768959,1.13935840129852,-10.4940567016602,6.27134609222412,-2.47504091262817,0.844107925891876,0.452158659696579,0.311058521270752,-0.165716290473938,0.345101088285446,-4.13314056396484
436,0.564486801624298,0.147672578692436,1.06433069705963,-4.81209135055542,2.13958024978638,-1.89735352993011,0.845879971981049,0.452464044094086,0.311595916748047,-0.263281375169754,0.261244595050812,-4.15867757797241
437,0.754134714603424,0.078480139374733,0.92462944984436,3.71355700492859,-1.48811662197113,-1.13637745380402,0.847375392913818,0.451636046171188,0.312258392572403,-0.181117311120033,0.230490028858185,-4.18110656738281
438,0.054618898779154,-0.009152479469776,0.848562955856323,7.74520921707153,-2.36411309242249,-0.268462240695953,0.847973167896271,0.450409024953842,0.312812179327011,0.002609848277643,0.30523294210434,-4.19089603424072
439,-0.01226032525301,0.012995150871575,0.98024308681488,8.50633430480957,-4.55475330352783,0.671599626541138,0.848404049873352,0.449873268604279,0.313324898481369,0.125803455710411,0.430358558893204,-4.18979787826538
440,0.066845931112766,0.201863795518875,1.15541887283325,1.68973624706268,-2.47404623031616,1.37760138511658,0.848926603794098,0.450496584177017,0.313851803541184,0.073314465582371,0.534581542015076,-4.16657972335815
441,0.222745969891548,0.339014708995819,1.14462220668793,-1.10480141639709,0.474407494068146,0.972987771034241,0.851030647754669,0.450380563735962,0.313168585300446,0.059795528650284,0.441041678190231,-4.15605306625366
442,0.276585638523102,0.304440498352051,1.09285628795624,-4.06642389297485,0.870660603046417,-0.132338762283325,0.851018309593201,0.450457125902176,0.313949108123779,0.031899087131024,0.555934846401215,-4.15380382537842
443,0.256485134363174,0.207167088985443,0.95294177532196,-8.05254650115967,3.6941282749176,0.115920707583427,0.853483438491821,0.450727462768555,0.314605832099915,-0.078929230570793,0.389013528823852,-4.15232133865356
444,-0.039909590035677,0.019665729254484,0.965268611907959,-11.3948345184326,6.93432331085205,0.016934292390943,0.85455310344696,0.450461208820343,0.315320789813995,-0.150835782289505,0.344262033700943,-4.15439558029175
445,0.019367925822735,-0.010790832340717,0.975250124931335,-12.9028730392456,5.47203254699707,-0.587543249130249,0.855764806270599,0.45126473903656,0.31008780002594,-0.353212535381317,0.260426551103592,-4.15019989013672
446,-0.093806684017181,0.036157265305519,1.01767981052399,-10.6036224365234,5.70843362808228,-0.645689070224762,0.85700935125351,0.451132863759995,0.310420393943787,-0.447531640529633,0.185372784733772,-4.15947866439819
447,-0.023127039894462,0.145701542496681,0.98277872800827,-15.9882688522339,2.22166848182678,0.066731490194798,0.85725998878479,0.452146232128143,0.310839772224426,-0.684609591960907,0.254995107650757,-4.15330314636231
448,0.029619777575135,0.291611224412918,0.907138824462891,-7.51555824279785,0.408249169588089,-0.189798802137375,0.858711779117584,0.451259166002274,0.312618106603622,-0.701920330524445,0.21594113111496,-4.16168880462647
449,0.107458725571632,0.215763971209526,0.961275577545166,-1.98788619041443,2.49324202537537,0.33923014998436,0.860068380832672,0.449863076210022,0.312970042228699,-0.607503652572632,0.181977465748787,-4.17312335968018
450,0.20619098842144,0.126277387142181,0.930705606937408,4.25638628005981,1.47858822345734,1.21587038040161,0.860014915466309,0.449741840362549,0.313336908817291,-0.585177898406982,0.291915446519852,-4.17370080947876
451,0.213013291358948,-0.024515587836504,0.947750091552734,6.5699987411499,3.29377293586731,1.94296896457672,0.861656427383423,0.449305206537247,0.316095262765884,-0.501988291740418,0.214733004570007,-4.15849876403809
452,-0.027897736057639,-0.322154939174652,1.05451571941376,3.48445177078247,-0.805417895317078,1.61330270767212,0.861636936664581,0.448696285486221,0.31649860739708,-0.384189069271088,0.315496861934662,-4.15698862075806
453,0.075394429266453,-0.041319932788611,0.961050093173981,5.33532238006592,-1.74336624145508,2.30402326583862,0.863480925559998,0.448251217603684,0.31672790646553,-0.310231566429138,0.23478776216507,-4.13053035736084
454,0.106813795864582,-0.087138898670673,1.04839158058167,1.55898988246918,-1.67281174659729,2.32991766929626,0.86563515663147,0.450434684753418,0.317647635936737,-0.535425066947937,0.135349363088608,-4.07481575012207
455,0.408985108137131,0.099617578089237,0.976492047309876,-0.482648491859436,-2.53756213188171,2.2123498916626,0.86679607629776,0.45050722360611,0.318001002073288,-0.54303902387619,0.157907858490944,-4.05037307739258
456,0.112444832921028,0.09759097546339,0.985855042934418,-0.736880481243133,0.372948735952377,2.44521069526672,0.867165923118591,0.449527770280838,0.318464308977127,-0.448969751596451,0.248593151569366,-4.04072284698486
457,0.156034082174301,-0.039956979453564,0.9372199177742,3.31637096405029,4.55337953567505,1.65149903297424,0.868410766124725,0.449855834245682,0.318767249584198,-0.469416052103043,0.209706246852875,-4.01646709442139
458,0.012016228400171,-0.246935486793518,1.06715154647827,6.25662755966187,5.51950836181641,1.42148101329803,0.869617223739624,0.449435144662857,0.318815112113953,-0.369144558906555,0.139614745974541,-4.00600242614746
459,-0.100279361009598,-0.272970408201218,1.072270154953,5.70119047164917,1.84258306026459,1.96794009208679,0.871191084384918,0.449077904224396,0.319122195243835,-0.269920855760574,0.041439764201641,-3.98708009719849
460,-0.027989273890853,-0.137691989541054,1.13870739936829,7.39885234832764,-1.64194416999817,1.95372784137726,0.871744215488434,0.448667019605637,0.319660633802414,-0.165665119886398,0.101023480296135,-3.97662854194641
461,0.063440471887589,0.098691314458847,1.15516483783722,11.9831991195679,-3.90679788589478,1.28519535064697,0.872287690639496,0.448585420846939,0.323167830705643,-0.080846630036831,0.197935849428177,-3.96757006645203
462,0.094118751585484,0.134916722774506,0.956718683242798,6.74207210540772,-5.19500160217285,0.758275151252747,0.873526573181152,0.448287963867188,0.324025183916092,0.045858699828386,0.222009718418121,-3.95892429351807
463,0.051758754998446,0.243487522006035,1.01191532611847,3.79336547851562,-0.628154754638672,1.01951026916504,0.875175178050995,0.448731601238251,0.324882447719574,0.026997925713658,0.18899542093277,-3.94067406654358
464,0.07174276560545,0.144292131066322,0.994812488555908,3.02861738204956,2.81922960281372,1.22322058677673,0.877128005027771,0.449363201856613,0.325454562902451,-0.015272066928446,0.092833295464516,-3.9195191860199
465,-0.134433567523956,-0.099974326789379,1.08551907539368,-4.03120517730713,4.44518423080444,0.965907156467438,0.877744257450104,0.449695825576782,0.326433956623077,-0.060069657862187,0.113724485039711,-3.91514277458191
466,-0.139546558260918,-0.189888492226601,1.04624772071838,-5.97936344146729,3.5793251991272,0.844654142856598,0.87956428527832,0.449936628341675,0.327333360910416,-0.14223800599575,-0.0061030453071,-3.90054059028625
467,-0.184691593050957,-0.117121905088425,1.08676207065582,-4.63500308990479,-0.068286418914795,0.534882724285126,0.880995869636535,0.450265794992447,0.328348606824875,-0.207051366567612,-0.046838372945786,-3.88950824737549
468,-0.272023141384125,-0.081437267363072,1.09899687767029,-2.60388016700745,-2.97770166397095,-0.554951429367065,0.8827143907547,0.450507044792175,0.322941958904266,-0.264895707368851,-0.079675383865833,-3.88808584213257
469,0.001967887626961,-0.059057474136353,1.06870925426483,0.447508096694946,-9.02484893798828,-1.01767408847809,0.882838368415833,0.450626015663147,0.323937445878983,-0.282045811414719,0.11665316671133,-3.9062933921814
470,0.081130281090736,0.059581864625216,0.975351750850678,3.02162575721741,-5.84327793121338,-0.184809789061546,0.883929908275604,0.450431883335113,0.324868023395538,-0.241439059376717,0.20577098429203,-3.91429710388184
471,0.005835526157171,0.09446344524622,0.916129231452942,6.08831739425659,-8.26536083221436,-0.054224241524935,0.884995639324188,0.449986189603806,0.322370171546936,-0.145161241292954,0.273226022720337,-3.91844606399536
472,0.00345884822309,0.149174839258194,0.954469323158264,4.56758546829224,-7.71639585494995,0.541791498661041,0.886022448539734,0.44942769408226,0.323009997606277,-0.03407995402813,0.344851523637772,-3.92044520378113
473,0.174733847379684,0.118359863758087,0.910856187343597,7.12948513031006,-5.28039979934692,1.18796837329865,0.888278365135193,0.448788821697235,0.323433965444565,0.09546385705471,0.297371238470078,-3.90716052055359
474,0.24848036468029,0.012521469034255,0.933994591236114,9.46331787109375,-2.35651040077209,1.31510770320892,0.889933288097382,0.448721587657928,0.3190016746521,0.173859059810638,0.274841964244843,-3.89213991165161
475,0.130988210439682,-0.077053681015968,1.05485856533051,8.86870861053467,0.603257119655609,1.80424273014069,0.891097128391266,0.4480000436306,0.319130212068558,0.331930994987488,0.277528345584869,-3.87978506088257
476,0.091998979449272,-0.211468905210495,1.0703376531601,5.50715589523315,2.74244952201843,1.18325805664063,0.893091082572937,0.448423951864243,0.319242745637894,0.35318386554718,0.174923315644264,-3.85881638526917
477,0.080479599535465,-0.142443835735321,0.998095870018005,2.02944040298462,1.1264271736145,-0.232445105910301,0.893362462520599,0.448464632034302,0.31704792380333,0.368918389081955,0.25629386305809,-3.8586151599884
478,0.124252662062645,0.000543146743439,0.926393032073975,-5.37506294250488,-3.14978790283203,-0.650512278079987,0.894060313701629,0.449689447879791,0.317175328731537,0.227969586849213,0.304583102464676,-3.85691547393799
479,0.125426605343819,-0.030643671751022,0.911554336547852,-3.03144693374634,-5.09578704833984,-1.9721794128418,0.89658910036087,0.449723482131958,0.317048251628876,0.164079412817955,0.196363389492035,-3.86759781837463
480,-0.022305723279715,-0.267926722764969,0.787492156028748,-9.57049942016602,-5.90149068832397,-1.68541264533997,0.895869255065918,0.450510174036026,0.317182630300522,0.046056933701038,0.463534772396088,-3.88427543640137
481,-0.053650047630072,-0.380919605493546,0.816271781921387,-7.43564891815186,-10.7626705169678,-2.32873868942261,0.896933436393738,0.44945901632309,0.315427631139755,0.068451166152954,0.557034432888031,-3.91247081756592
482,0.168901935219765,-0.519876003265381,0.888469219207764,-8.99832916259766,-11.4810209274292,-3.0007803440094,0.898452997207642,0.450198084115982,0.31477615237236,-0.09335719794035,0.649890780448914,-3.93429589271545
483,0.127260506153107,-0.33091875910759,1.0630077123642,-10.3574771881104,-5.27675485610962,-2.79767298698425,0.899002015590668,0.450713068246841,0.314099878072739,-0.248612314462662,0.796262741088867,-3.95510625839233
484,0.375375747680664,-0.01710263080895,1.12278079986572,-4.9410457611084,-1.93460369110107,-4.32679891586304,0.899760782718658,0.450183629989624,0.313450276851654,-0.249015629291534,0.855129837989807,-3.99599933624268
485,0.377957046031952,0.141184821724892,1.15190637111664,1.23675012588501,4.01192092895508,-4.5801248550415,0.900110065937042,0.449871629476547,0.312987953424454,-0.233198389410973,0.906737565994263,-4.04367256164551
486,0.019274555146694,0.01968858204782,0.964631736278534,5.81837844848633,5.60076141357422,-4.31534194946289,0.902056813240051,0.44893804192543,0.312559843063354,-0.109542511403561,0.744465470314026,-4.09684276580811
487,-0.132092222571373,-0.252248108386993,0.930862545967102,10.8049783706665,7.04836511611939,-4.46332406997681,0.903284728527069,0.448166936635971,0.312056601047516,0.065318398177624,0.643890142440796,-4.14932870864868
488,0.02649774774909,-0.280730605125427,0.939224779605866,8.43753147125244,7.81285190582275,-3.77520442008972,0.903819382190704,0.447768300771713,0.311577886343002,0.18853434920311,0.615479290485382,-4.19456243515015
489,-0.025217328220606,-0.166751816868782,1.10920917987823,6.73024749755859,7.68368864059448,-3.03908777236938,0.905059516429901,0.448176980018616,0.311078637838364,0.197104007005692,0.51038670539856,-4.21702575683594
490,-0.012480000965297,0.067296452820301,1.11675536632538,6.62022590637207,4.92436265945435,-3.5659384727478,0.905636548995972,0.448406308889389,0.310730129480362,0.219697833061218,0.495819687843323,-4.24738836288452
491,0.127310797572136,0.057582687586546,1.066535115242,3.92449641227722,5.7994909286499,-2.24912691116333,0.90766966342926,0.447948634624481,0.307211607694626,0.305944979190826,0.313678592443466,-4.27703714370728
492,0.202158376574516,0.024497149512172,1.08236491680145,4.64865970611572,4.49186420440674,-2.25474214553833,0.908065915107727,0.448470801115036,0.30692520737648,0.295813024044037,0.325321882963181,-4.29274225234985
493,-0.103575021028519,-0.044281177222729,1.03865075111389,-0.076808907091618,-0.577371597290039,-0.586978077888489,0.908718764781952,0.449041366577148,0.30665510892868,0.255116075277328,0.343823552131653,-4.30026912689209
494,-0.274553745985031,-0.041045110672712,0.965112328529358,-1.16659045219421,-2.58246159553528,0.60919201374054,0.909113466739654,0.449153035879135,0.305828362703323,0.257401525974274,0.4220050573349,-4.30033874511719
495,-0.089034907519817,-0.089663065969944,1.03656435012817,-5.83310222625732,-0.761430501937866,2.58808541297913,0.910513162612915,0.44942519068718,0.305470764636993,0.194690272212029,0.396687805652618,-4.28231811523438
496,0.124308258295059,0.104818314313889,1.04901802539825,-5.62576341629028,1.49406158924103,2.46017646789551,0.911413431167602,0.449462175369263,0.305181235074997,0.140739262104034,0.247041523456573,-4.26245737075806
497,0.059030007570982,0.119480833411217,1.06730473041534,-2.5665602684021,5.56257915496826,1.69967257976532,0.913889944553375,0.448789745569229,0.307728409767151,0.143678531050682,0.213778898119926,-4.24248552322388
498,0.020515784621239,-0.179568901658058,1.10563158988953,-1.18573617935181,6.39001274108887,1.44253396987915,0.915148019790649,0.448666155338287,0.307721853256226,0.145162388682365,0.124104209244251,-4.22645902633667
499,0.340937674045563,-0.258178681135178,1.08802998065948,1.68907499313355,7.07133007049561,2.90912914276123,0.916797041893005,0.448503613471985,0.307761818170547,0.162810623645783,-0.036607924848795,-4.2002477645874
500,0.28291592001915,-0.176668107509613,1.03896677494049,2.13193082809448,5.77293109893799,2.65622067451477,0.917195618152618,0.44851878285408,0.308074921369553,0.169801637530327,-0.026440966874361,-4.16880750656128
501,0.090731874108315,0.122494585812092,1.01417887210846,2.09120154380798,3.67460942268372,2.79565072059631,0.918022811412811,0.448437541723251,0.308309286832809,0.185328140854835,-0.028140854090452,-4.14153814315796
502,0.013122692704201,0.151502832770348,1.09236407279968,3.06524085998535,4.14506244659424,3.02484202384949,0.918307781219482,0.448355406522751,0.30867937207222,0.212853401899338,0.006392218638211,-4.11237955093384
503,0.006403681822121,0.031325489282608,1.05189061164856,1.88528943061829,3.26834607124329,3.32168412208557,0.918556571006775,0.448968768119812,0.309133529663086,0.173558950424194,0.046492282301188,-4.07573986053467
504,-0.043196324259043,0.131954908370972,0.995722472667694,-3.5216805934906,4.34812450408936,4.0066409111023,0.920348584651947,0.448816120624542,0.305904239416122,0.163901835680008,-0.098175816237927,-4.04524993896484
505,-0.227091744542122,0.055618602782488,0.937988519668579,-2.87514543533325,1.83134984970093,3.74890685081482,0.92095947265625,0.449028432369232,0.306107729673386,0.110078416764736,-0.06030247732997,-4.00551700592041
506,-0.040211729705334,0.123258881270886,0.941354334354401,-2.23182058334351,-0.572286009788513,3.5525951385498,0.921255350112915,0.449166089296341,0.306269854307175,0.077927447855473,0.042881041765213,-3.96909189224243
507,0.271038889884949,0.150502383708954,1.02167558670044,-2.15177941322327,-0.338156282901764,5.25084924697876,0.92169451713562,0.44935330748558,0.301780790090561,0.04399361088872,0.107417076826096,-3.91753339767456
508,-0.037009537220001,0.093027025461197,1.03507161140442,-1.01429283618927,2.48987364768982,6.58750486373901,0.922527194023132,0.448717266321182,0.301609039306641,0.086185567080975,0.081820242106915,-3.85858535766602
509,0.03697856143117,-0.033306989818812,0.986035704612732,1.45841908454895,3.02848386764526,7.15921306610107,0.923302829265594,0.447912186384201,0.301456093788147,0.164466291666031,0.059387736022472,-3.79015064239502
510,0.035066042095423,0.004845118150115,1.02416729927063,2.49684882164001,4.51928853988647,7.19819211959839,0.924291431903839,0.447707444429398,0.301303714513779,0.193299472332001,0.000453044252936,-3.71878123283386
511,0.00507781887427,-0.008322579786181,1.04070043563843,-0.20309254527092,7.8553352355957,7.69495391845703,0.924564599990845,0.447551876306534,0.295940846204758,0.217974796891212,-0.009252737276256,-3.64305186271667
512,0.049719344824553,0.049101375043392,0.982594192028046,-1.69271814823151,8.22726821899414,7.33079814910889,0.925968170166016,0.449063211679459,0.295546054840088,0.030363697558642,-0.14291051030159,-3.57241797447205
513,0.110989302396774,0.065144091844559,0.999220371246338,-1.98374712467194,9.28329563140869,6.82985544204712,0.927517652511597,0.449033558368683,0.295057535171509,0.008971794508398,-0.315961450338364,-3.50376129150391
514,0.013460130430758,0.069960176944733,1.00825273990631,-3.06653618812561,7.61965942382813,7.60268878936768,0.928097903728485,0.449145287275314,0.295354515314102,-0.023394664749503,-0.36208364367485,-3.43013691902161
515,0.06171191111207,-0.241510599851608,0.996144533157349,-3.28224277496338,5.17128562927246,8.62278556823731,0.930125534534454,0.448408842086792,0.29485884308815,0.023665441200137,-0.557248473167419,-3.34452891349792
516,-0.07320536673069,0.050399206578732,1.1414110660553,-2.47555756568909,0.977386116981506,8.15433979034424,0.93083268404007,0.448832839727402,0.294577479362488,-0.060168299824,-0.55092465877533,-3.26081109046936
517,0.117535471916199,0.044328525662422,1.06213438510895,-1.2139812707901,-2.35438084602356,8.04314708709717,0.932074785232544,0.448143601417542,0.295504122972488,0.007462829817086,-0.570410788059235,-3.17382407188416
518,-0.007945543155074,-0.014935276471078,1.03092646598816,2.12839508056641,-3.40127229690552,7.93272924423218,0.932676494121552,0.448000013828278,0.295472174882889,0.030166005715728,-0.494293659925461,-3.09037494659424
519,0.016931993886829,0.030370093882084,1.03243660926819,2.0663013458252,-1.74823606014252,8.12030696868897,0.93391489982605,0.447835445404053,0.295374602079391,0.057250689715147,-0.509522080421448,-3.00750613212585
520,-0.009902270510793,0.012493086047471,1.03501451015472,3.56634545326233,-1.01953768730164,8.39011192321777,0.934566140174866,0.447570592164993,0.295954316854477,0.106443487107754,-0.448349714279175,-2.92249989509583
521,0.046386629343033,0.063338823616505,1.05591881275177,3.28805708885193,-1.36356794834137,8.48913383483887,0.935260057449341,0.447945475578308,0.296051263809204,0.082051560282707,-0.390243232250214,-2.84343028068542
522,-0.10338120162487,-0.014656251296401,1.05862176418304,4.19266319274902,-2.41808295249939,7.70209407806397,0.937158763408661,0.447629183530808,0.296048641204834,0.144530341029167,-0.485384434461594,-2.76124739646912
523,0.252149820327759,-0.013434840366244,1.02516007423401,3.86331176757812,-1.72599291801453,7.5046558380127,0.938286781311035,0.447554379701614,0.296231538057327,0.183276072144508,-0.464367687702179,-2.6791775226593
524,-0.011696566827595,0.070938594639301,1.13140046596527,0.343608319759369,-1.62956631183624,6.42573595046997,0.93967878818512,0.44742876291275,0.297407984733582,0.183138385415077,-0.515894889831543,-2.61275362968445
525,0.090730398893356,-0.028442250564694,1.13216257095337,-1.98971426486969,-5.19772338867188,6.69983863830566,0.940846562385559,0.447429835796356,0.297832399606705,0.161696076393127,-0.479362457990646,-2.54802274703979
526,0.054245214909315,0.044134445488453,1.00227546691895,-2.23550224304199,-4.73162746429443,5.9702353477478,0.941357672214508,0.44753560423851,0.298448294401169,0.123545616865158,-0.364397346973419,-2.48859262466431
527,-0.06992793828249,-0.02621004730463,1.07013940811157,-1.25559043884277,-3.51755261421204,6.52704572677612,0.942822158336639,0.44754484295845,0.295378178358078,0.094445161521435,-0.384777754545212,-2.42646288871765
528,0.1648138910532,-0.11573651432991,1.11106884479523,-1.40844130516052,-3.82934260368347,5.66749668121338,0.943332016468048,0.447559088468552,0.29589319229126,0.075515352189541,-0.296298205852509,-2.3675365447998
529,1.03450560569763,-0.193368673324585,0.999144554138184,-0.805473029613495,-4.40744543075562,5.10872650146484,0.946109712123871,0.447399526834488,0.296198099851608,0.067602626979351,-0.457393139600754,-2.31465029716492
530,0.748087108135223,-0.229337960481644,1.0762654542923,-3.88918495178223,-1.74069857597351,4.84591436386108,0.94603043794632,0.447634279727936,0.295498162508011,0.020378405228257,-0.293621093034744,-2.26613140106201
531,0.079453706741333,0.000462405267172,1.00966060161591,-2.22430610656738,-1.56389808654785,4.56139612197876,0.947240591049194,0.447317361831665,0.296003878116608,0.021949803456664,-0.282329231500626,-2.21852684020996
532,0.046224415302277,0.10685770958662,0.958174347877502,-3.89597225189209,-1.57629263401032,4.01705074310303,0.948534488677978,0.446824967861176,0.296486258506775,0.021250052377582,-0.285622715950012,-2.17051863670349
533,-0.003487141802907,0.060771349817515,1.0249080657959,-2.48378443717957,-2.8659200668335,3.64497923851013,0.949159562587738,0.446911692619324,0.297054320573807,-0.028789188712835,-0.202852293848991,-2.13385248184204
534,0.081963084638119,-0.048978287726641,1.02644109725952,-0.998719036579132,-2.92577838897705,2.68801832199097,0.95107626914978,0.446918964385986,0.29818519949913,-0.054805748164654,-0.26780292391777,-2.10945224761963
535,-0.060856033116579,0.032006900757551,0.988052666187286,4.49385452270508,-2.36477088928223,3.30126523971558,0.95202624797821,0.446993589401245,0.29876321554184,-0.060034718364477,-0.220123916864395,-2.07891511917114
536,0.041638530790806,0.301380425691605,1.14914417266846,2.21737027168274,0.204627424478531,3.51513385772705,0.953259766101837,0.446919113397598,0.299369812011719,-0.055211625993252,-0.247353926301002,-2.04428863525391
537,0.349655210971832,0.153236359357834,1.04800486564636,3.86168241500854,-0.493742316961288,2.65114116668701,0.953514695167542,0.44668060541153,0.303236693143845,0.001431892975234,-0.147254049777985,-2.01728868484497
538,0.08426633477211,-0.002636879682541,1.05566537380219,5.30387401580811,-0.619573593139648,1.65233361721039,0.955615997314453,0.446256816387177,0.304103702306747,0.085971109569073,-0.264836102724075,-1.99321722984314
539,0.050535686314106,0.004220624454319,1.04080951213837,5.65986251831055,0.27203369140625,1.47687578201294,0.957102477550507,0.445841193199158,0.30506044626236,0.177264630794525,-0.305078148841858,-1.97641396522522
540,0.172454133629799,0.014090092852712,0.984846889972687,4.79550552368164,-0.210527941584587,1.10925459861755,0.957319617271423,0.44553953409195,0.3051538169384,0.252482861280441,-0.203131034970283,-1.96450746059418
541,-0.014834555797279,-0.006207225844264,1.00119411945343,4.61935377120972,0.322022616863251,1.15987646579742,0.959287941455841,0.445938050746918,0.306074947118759,0.223797008395195,-0.311189562082291,-1.95638680458069
542,-0.048465888947249,-0.049403682351112,1.06295251846313,2.7620062828064,-1.66541218757629,-0.141812264919281,0.960711181163788,0.445924967527389,0.307067453861237,0.232674732804298,-0.348312944173813,-1.95684421062469
543,-0.11463301628828,-0.081275090575218,1.07213544845581,-1.06228053569794,-5.59453344345093,-0.9427050948143,0.960022389888763,0.446338444948196,0.302766621112823,0.157251849770546,-0.101069115102291,-1.96683478355408
544,0.274320840835571,0.007244801148772,1.07817029953003,-2.49731612205505,-12.7985649108887,-0.801914632320404,0.961823999881744,0.446202218532562,0.303577423095703,0.110497429966927,-0.062000710517168,-1.97312462329865
545,0.417844951152802,0.206786170601845,0.995855987071991,-5.69882202148438,-10.7799987792969,-0.874625504016876,0.964009165763855,0.446433305740356,0.304375559091568,0.003253681119531,-0.052548456937075,-1.98679566383362
546,-0.028893323615193,0.056146942079067,0.982724130153656,-7.38709831237793,-9.39391326904297,-1.75666737556458,0.964222609996796,0.44665864109993,0.305410265922546,-0.081368856132031,0.158570066094399,-2.00527811050415
547,0.011604865081608,-0.036452118307352,0.849452376365662,-8.64891242980957,-6.82897615432739,-2.5126371383667,0.964447200298309,0.445507913827896,0.302608460187912,-0.009378112852573,0.311042040586472,-2.02467083930969
548,-0.046793632209301,-0.236169040203094,0.799318075180054,-7.4096851348877,-3.3499858379364,-3.69764304161072,0.964097261428833,0.445676356554031,0.303116589784622,-0.091761894524098,0.506706535816193,-2.06075310707092
