number,acc.x,acc.y,acc.z,gyro.x,gyro.y,gyro.z,stateEstimate.x,stateEstimate.y,stateEstimate.z,stabilizer.roll,stabilizer.pitch,stabilizer.yaw
0,-0.005836215801537,-0.361330449581146,1.03562700748444,1.16863334178925,-20.8904209136963,0.331002950668335,1.8277280330658,0.513697504997253,0.298981785774231,0.148026257753372,1.06626284122467,0.619560241699219
1,0.002641081577167,-0.125963687896729,0.997351348400116,5.08290433883667,-17.4965381622314,0.850555598735809,1.82855343818665,0.514231264591217,0.289968609809875,0.148999780416489,1.23188757896423,0.633009254932404
2,0.052918646484614,-0.154760748147964,0.977852165699005,10.7000894546509,-7.04215669631958,0.99336302280426,1.82931673526764,0.513407170772553,0.289455413818359,0.32189354300499,1.35813319683075,0.632766842842102
3,0.244091644883156,0.024412674829364,0.898537397384644,17.6186847686768,-3.73816323280334,0.425366520881653,1.83344888687134,0.511722803115845,0.288847893476486,0.612220823764801,1.09255874156952,0.607635498046875
4,0.088091813027859,-0.157793834805489,0.979056000709534,19.7542514801025,4.80851221084595,1.89684844017029,1.83272445201874,0.511202573776245,0.286991834640503,0.838609099388123,1.24059045314789,0.623883128166199
5,0.07327301055193,-0.09711579233408,0.959761917591095,18.7118873596191,6.01514959335327,2.65195322036743,1.83529603481293,0.511420428752899,0.286241948604584,0.992466568946838,1.00566232204437,0.649495899677277
6,0.594797015190125,-0.316105037927628,0.837153613567352,16.48410987854,4.30524396896362,2.96339893341064,1.83560800552368,0.510059535503387,0.28537255525589,1.25444495677948,1.01394236087799,0.669993877410889
7,0.183971136808395,-0.220946624875069,1.02620041370392,12.2563018798828,-0.61999922990799,3.53905391693115,1.83556056022644,0.510386049747467,0.286038398742676,1.34218215942383,1.10924363136292,0.724355578422546
8,0.030386958271265,-0.216077521443367,1.05381834506989,9.13356685638428,-2.23000979423523,3.96845960617065,1.83688068389893,0.510571956634522,0.285267353057861,1.39166688919067,1.08889842033386,0.767553150653839
9,0.19636707007885,-0.852056503295898,1.06507551670074,5.57771682739258,-7.89490985870361,4.32258129119873,1.83639776706696,0.51279079914093,0.284748077392578,1.31437110900879,1.27828598022461,0.875345706939697
10,-0.017165310680866,-0.467384248971939,0.929089605808258,4.77726936340332,-8.09032821655273,4.3364634513855,1.83811974525452,0.51205986738205,0.283959358930588,1.37687361240387,1.23605811595917,0.89526104927063
11,0.033751539885998,-0.121351882815361,0.928565740585327,2.91811203956604,-8.88810539245606,3.46309447288513,1.83823502063751,0.512242496013641,0.279663383960724,1.4069310426712,1.38914918899536,0.945394396781921
12,-0.020561715587974,0.122221119701862,1.13755130767822,7.10759019851685,-8.03818607330322,4.40999031066895,1.83773803710938,0.509993195533752,0.278556048870087,1.64216125011444,1.58512985706329,0.96478945016861
13,0.117386214435101,-0.590051174163818,1.14662909507751,9.44595909118652,-4.26361131668091,4.90620231628418,1.84038877487183,0.508377075195313,0.277686387300491,1.72854375839233,1.40529668331146,0.947385609149933
14,0.00877262186259,-0.823367178440094,1.22189199924469,10.0159225463867,1.89472317695618,6.17996406555176,1.84118115901947,0.507648646831512,0.278668493032455,1.835324883461,1.38479483127594,1.0080738067627
15,0.075200594961643,-0.468241631984711,1.12489151954651,9.13708305358887,4.49728298187256,4.85306310653687,1.84286248683929,0.508771061897278,0.27835088968277,1.78105008602142,1.2378396987915,1.07748174667358
16,0.13748362660408,-0.206926420331001,1.11332929134369,7.42891073226929,4.92868375778198,5.51342916488647,1.8431841135025,0.508570313453674,0.278029561042786,1.86086618900299,1.23434484004974,1.14909291267395
17,0.082638286054134,0.032576728612185,1.06868362426758,3.68597269058228,5.15464639663696,4.8161096572876,1.8434830904007,0.508817851543427,0.277398526668549,1.87088453769684,1.22531974315643,1.22312998771667
18,0.013913936913014,0.046423174440861,1.08402633666992,-0.722128033638001,2.95971918106079,3.37522196769714,1.8436450958252,0.507238626480103,0.277129948139191,1.96585381031036,1.2529855966568,1.24318528175354
19,0.057370636612177,-0.120364807546139,1.07816779613495,-2.59014534950256,0.321760058403015,3.55266714096069,1.84436774253845,0.507831454277039,0.2771135866642,1.85996222496033,1.2298229932785,1.3037873506546
20,0.055783018469811,-0.176935717463493,1.01405954360962,-4.80301380157471,-2.44380950927734,3.1897029876709,1.84423780441284,0.507006704807282,0.274566262960434,1.87682640552521,1.32553052902222,1.34737110137939
21,0.069090813398361,-0.493693113327026,1.08566391468048,-5.79592752456665,-2.97199535369873,3.24684953689575,1.84465157985687,0.508126318454742,0.274528801441193,1.71132755279541,1.36193132400513,1.42294311523438
22,0.055897511541844,-0.191946759819984,1.06715989112854,-6.06574583053589,-1.94015347957611,3.7632040977478,1.84593737125397,0.502591013908386,0.274205476045609,1.92214596271515,1.30339050292969,1.31060481071472
23,-0.025768017396331,-0.330647259950638,0.994688749313354,-5.25976371765137,-0.604901850223541,4.20965337753296,1.84575819969177,0.504389107227325,0.274410307407379,1.74921083450317,1.37655639648438,1.43951082229614
24,0.021551359444857,-0.811089277267456,1.23795807361603,-5.03245210647583,0.257595866918564,4.23721408843994,1.84644198417664,0.503956615924835,0.276050329208374,1.65207862854004,1.33806157112122,1.48509764671326
25,0.099232934415341,-0.785138845443726,1.17601251602173,-4.68253231048584,-0.02210826985538,4.79838418960571,1.84646046161652,0.501874089241028,0.27629491686821,1.70257115364075,1.37427830696106,1.5122127532959
26,0.052119981497526,-0.761369109153748,1.08901238441467,-4.37024307250977,2.25231790542603,4.05176782608032,1.8465838432312,0.501987278461456,0.276820868253708,1.60332751274109,1.37715876102448,1.58731544017792
27,0.159004911780357,-0.697628855705261,1.00373804569244,-5.37556743621826,2.58157801628113,3.75606918334961,1.84745514392853,0.497981041669846,0.277496874332428,1.7115775346756,1.28868436813355,1.53310215473175
28,0.277466326951981,-0.406349062919617,1.06279218196869,-4.96052551269531,2.45320224761963,4.34992694854736,1.84757518768311,0.499388486146927,0.278268843889236,1.51271271705627,1.27703809738159,1.64634037017822
29,0.412741214036942,-0.525158584117889,1.13236117362976,-5.58670949935913,4.78781747817993,4.15778303146362,1.8485598564148,0.495393574237824,0.278706341981888,1.60513281822205,1.16191065311432,1.59609973430634
30,0.187224313616753,-0.664834320545197,1.04138243198395,-8.1941385269165,5.30208730697632,3.89291381835937,1.84880530834198,0.494478136301041,0.283042579889297,1.49981558322907,1.11947786808014,1.65145337581635
31,0.041984420269728,-0.09657034277916,0.991771101951599,-8.86322498321533,4.69983720779419,4.87775278091431,1.84905910491943,0.493804335594177,0.284044921398163,1.38573980331421,1.08938753604889,1.70993709564209
32,0.085256159305573,0.020986523479223,1.0502861738205,-9.35152053833008,1.82195949554443,3.79261684417725,1.84857416152954,0.491607427597046,0.28491336107254,1.40654492378235,1.15803945064545,1.74992620944977
33,0.097333535552025,-0.156488001346588,0.928728640079498,-9.74142742156982,0.332222521305084,3.30989456176758,1.84871172904968,0.489987403154373,0.285860180854797,1.33101654052734,1.15081584453583,1.78124964237213
34,-0.033912215381861,-0.313317149877548,0.844130635261535,-11.6791372299194,1.18046450614929,3.29102420806885,1.84894597530365,0.490043640136719,0.281917482614517,1.13695406913757,1.13456797599792,1.84232926368713
35,-0.057437583804131,-0.465083211660385,0.933096647262573,-13.0900096893311,2.69690680503845,3.10976076126099,1.84990704059601,0.485969543457031,0.282222837209702,1.15043008327484,1.01747941970825,1.78951013088226
36,0.225426450371742,0.04039853066206,1.07986462116241,-13.4961366653442,3.85510945320129,3.29113912582397,1.84954047203064,0.487366050481796,0.28300353884697,0.855917930603027,1.02508413791657,1.90160095691681
37,0.036153621971607,-0.506921112537384,0.979519784450531,-11.8591232299805,8.43563461303711,3.25134325027466,1.85003590583801,0.48460653424263,0.284408390522003,0.815224826335907,0.906068742275238,1.89452087879181
38,0.024761281907559,-0.19987116754055,1.09080946445465,-11.9924869537354,11.3193864822388,3.26709055900574,1.85059010982513,0.482934832572937,0.284947991371155,0.698932588100433,0.765520513057709,1.91266667842865
39,0.505282282829285,-0.118429936468601,0.947271645069122,-10.7368278503418,11.6183891296387,2.64917230606079,1.85063445568085,0.481565296649933,0.285497486591339,0.593644142150879,0.669945061206818,1.94817769527435
40,0.339184671640396,-0.111397728323936,1.00400352478027,-9.45411109924316,10.9090490341187,1.75508177280426,1.85129702091217,0.478702038526535,0.287630468606949,0.57392543554306,0.509775996208191,1.93538880348206
41,0.282931119203568,-0.130464896559715,0.999637126922607,-7.33372211456299,8.4248571395874,3.59068393707275,1.85126900672913,0.48010841012001,0.288527280092239,0.283029019832611,0.438437432050705,2.02451229095459
42,0.153221994638443,-0.81272029876709,0.961547315120697,-7.39957046508789,5.8725061416626,2.37359237670898,1.85258519649506,0.476141422986984,0.288955748081207,0.374724447727203,0.257313966751099,1.98327279090881
43,0.132195517420769,0.004116591997445,1.0487232208252,-7.20917129516602,2.02200031280518,1.43350946903229,1.85211932659149,0.476476073265076,0.28988054394722,0.182421416044235,0.305667459964752,2.037278175354
44,0.090859353542328,-0.402243554592133,0.859713792800903,-2.94738459587097,0.751602590084076,1.22430443763733,1.85224342346191,0.472722679376602,0.290311396121979,0.345305651426315,0.313833862543106,2.01955437660217
45,0.181387156248093,-0.107980318367481,0.987596333026886,-5.2153263092041,0.989434063434601,1.01913154125214,1.85217142105103,0.471680283546448,0.290901899337769,0.255116403102875,0.345668405294418,2.03994941711426
46,0.215379536151886,-0.120315186679363,1.01069986820221,-7.03379964828491,0.525888323783875,0.073440797626972,1.85208797454834,0.470714151859283,0.291500419378281,0.144372820854187,0.37258243560791,2.04945802688599
47,0.583257377147675,-0.362464040517807,0.858726799488068,-9.3991870880127,1.12721967697144,0.838892042636871,1.85223090648651,0.468517571687698,0.290379226207733,0.13072757422924,0.365679562091827,2.04601883888245
48,0.303720474243164,-0.327806830406189,1.14452850818634,-10.10120677948,2.11012482643127,0.234504282474518,1.85244297981262,0.46780389547348,0.290904015302658,-0.046462755650282,0.331987023353577,2.05255007743835
49,0.237716943025589,-0.237364426255226,0.942855954170227,-12.4918098449707,2.65093588829041,-0.170056283473969,1.85208177566528,0.464100182056427,0.291107803583145,0.048840697854757,0.354668915271759,2.04161930084229
50,0.114011839032173,-0.537145256996155,1.00723302364349,-9.97632312774658,5.76487398147583,-0.5094975233078,1.85239005088806,0.464100122451782,0.292407631874084,-0.224775597453117,0.272935211658478,2.04121017456055
51,0.165022775530815,-0.12142238765955,1.02966547012329,-10.142728805542,6.9870548248291,-0.901572048664093,1.85266375541687,0.463956624269486,0.293057560920715,-0.450575649738312,0.191055193543434,2.03796648979187
52,0.153182476758957,-0.157580435276032,0.928748548030853,-10.7767181396484,8.49691200256348,-0.01013520732522,1.85172593593597,0.461549550294876,0.293494671583176,-0.46447429060936,0.222876206040382,2.02470541000366
53,0.16881999373436,-0.223387911915779,0.955097615718842,-9.60270309448242,8.43060779571533,-1.08394396305084,1.85078322887421,0.459895759820938,0.293262988328934,-0.558027923107147,0.24343241751194,1.99954795837402
54,0.249631643295288,0.019674960523844,1.02009129524231,-8.81969547271729,8.55533313751221,-1.3428670167923,1.85285174846649,0.458191454410553,0.293610662221909,-0.561813712120056,-0.051031317561865,2.01690936088562
55,0.267848402261734,-0.373986750841141,0.959777653217316,-7.83010578155518,5.68605279922485,-1.17410063743591,1.85189998149872,0.457600504159927,0.294149726629257,-0.77689915895462,-0.017686391249299,1.98274827003479
56,-0.036383919417858,-0.342043220996857,1.0498058795929,-5.44505786895752,3.74935746192932,-0.655924558639526,1.85243928432465,0.455500900745392,0.29439440369606,-0.740596890449524,-0.118562325835228,1.991135597229
57,0.218576490879059,0.061871476471424,1.06493663787842,-1.33381628990173,3.72265696525574,0.000660241406877,1.85198366641998,0.453912138938904,0.294999003410339,-0.763600826263428,-0.094456747174263,1.9757354259491
58,0.397329837083817,-0.692681968212128,0.922406196594238,-0.832709491252899,0.736692190170288,0.617152392864227,1.85208261013031,0.45315808057785,0.295468747615814,-0.84086686372757,-0.117277853190899,1.97539961338043
59,0.289806872606277,-0.487963497638702,1.04809045791626,1.05399119853973,-0.763780117034912,-0.062447100877762,1.85208129882813,0.451068758964539,0.295773059129715,-0.753405392169952,-0.103379100561142,1.98574948310852
60,0.184335649013519,-0.10823155939579,0.992821395397186,-0.182944118976593,0.451828181743622,-0.685375094413757,1.85192489624023,0.450601756572723,0.297742456197739,-0.883633852005005,-0.086858384311199,1.96252262592316
61,0.14996774494648,-0.054641157388687,0.90173614025116,-2.45000314712524,0.523653507232666,0.731140792369843,1.85187160968781,0.449799299240112,0.298264682292938,-0.958497881889343,-0.079500019550324,1.95524609088898
62,0.091458395123482,0.016488438472152,1.02282214164734,-2.18193864822388,-0.283273428678513,0.542526185512543,1.85114145278931,0.448009312152863,0.298711240291595,-0.956587016582489,-0.004041951615363,1.9366238117218
63,0.071836106479168,-0.105983756482601,0.987563669681549,-1.32659816741943,-0.783347725868225,0.101759396493435,1.85199058055878,0.447260141372681,0.300483584403992,-0.954858601093292,-0.093819670379162,1.97481167316437
64,0.022925611585379,-0.25541090965271,0.967144548892975,1.35899794101715,0.512745678424835,0.568081915378571,1.85368454456329,0.446437895298004,0.300931811332703,-0.848835170269012,-0.24888151884079,2.05535006523132
65,0.084983132779598,-0.050688151270151,1.04870045185089,0.70068347454071,-0.282473087310791,-0.149966835975647,1.85372400283813,0.445424884557724,0.30150756239891,-0.884989380836487,-0.240128949284554,2.04219388961792
66,0.097153849899769,-0.063147783279419,0.961147665977478,-0.49440011382103,-0.264788269996643,0.609050333499908,1.85438537597656,0.443779349327087,0.30187264084816,-0.774279177188873,-0.269693225622177,2.08271932601929
67,0.157896965742111,-0.150494948029518,0.951316297054291,-0.118421606719494,0.609682083129883,0.331906318664551,1.85430383682251,0.443244516849518,0.301080793142319,-0.904916048049927,-0.23787097632885,2.0480363368988
68,0.556566834449768,-0.358710795640945,1.05592215061188,0.349353313446045,-4.23472547531128,-0.370348393917084,1.85492098331451,0.442665129899979,0.301452964544296,-0.942218542098999,-0.243314161896706,2.05931925773621
69,0.167897969484329,-0.35958194732666,0.977412283420563,-1.12270355224609,-6.11087226867676,0.242728471755981,1.85479271411896,0.440746337175369,0.301762670278549,-0.888521373271942,-0.158679932355881,2.06291651725769
70,0.400617241859436,-0.794890761375427,0.945585429668426,-1.2243686914444,-7.47554874420166,0.029851455241442,1.85370945930481,0.439566940069199,0.301944643259048,-1.04810988903046,0.007992975413799,1.98420250415802
71,0.631331861019135,-0.316328674554825,1.08886110782623,-0.83925187587738,-5.46763181686401,0.805752038955689,1.85519254207611,0.437861114740372,0.302130401134491,-0.812782824039459,-0.062289368361235,2.09809970855713
72,0.231321379542351,-0.029322642832995,0.946720838546753,1.8225120306015,-3.11503624916077,0.584296941757202,1.85556721687317,0.437976866960526,0.302673816680908,-0.965256154537201,-0.051478546112776,2.07848715782166
73,0.230028435587883,-0.289754658937454,0.934461832046509,1.49293601512909,-2.16551947593689,-0.103379622101784,1.85622310638428,0.436382204294205,0.301836162805557,-0.827359855175018,-0.054763354361057,2.12472295761108
74,-0.007487413007766,-0.25407263636589,1.02709996700287,1.63495087623596,-0.698731005191803,-0.023576959967613,1.85677218437195,0.436188906431198,0.302133500576019,-0.912282407283783,-0.064596503973007,2.11652541160583
75,0.091395050287247,-0.196560069918633,0.913490951061249,4.48818778991699,-2.73151612281799,1.07388508319855,1.85672557353973,0.434986352920532,0.302342563867569,-0.888578832149506,-0.009429517202079,2.10355806350708
76,0.104984141886234,-0.360357195138931,0.965296447277069,2.69969749450684,-4.73829221725464,0.556244611740112,1.85651099681854,0.433728337287903,0.297643393278122,-0.875486016273499,0.069978170096874,2.08841633796692
77,0.12558177113533,-0.337554275989533,1.03247535228729,5.45478391647339,-4.76908731460571,-0.214179992675781,1.85606873035431,0.432779520750046,0.297549724578857,-0.90407657623291,0.177558735013008,2.05102014541626
78,0.109232321381569,-0.209197834134102,0.96418833732605,3.11752414703369,-5.87528657913208,-0.718555927276611,1.85716378688812,0.433077096939087,0.297452300786972,-0.936283230781555,0.146628379821777,2.07821154594421
79,0.029997723177075,-0.130935505032539,0.968290686607361,2.12693667411804,-4.10999917984009,0.790407657623291,1.85680723190308,0.431190878152847,0.29725056886673,-0.831941306591034,0.250399857759476,2.07107281684875
80,0.09415190666914,-0.051603339612484,1.01314353942871,2.47042870521545,-3.59838461875916,1.18874514102936,1.85653018951416,0.430556267499924,0.298413634300232,-0.87636137008667,0.320769816637039,2.04765009880066
81,0.025737941265106,-0.321311801671982,1.01188778877258,4.23840093612671,-4.12505149841309,0.595374047756195,1.85714757442474,0.430538356304169,0.298368692398071,-0.882967114448547,0.299442321062088,2.06709671020508
82,0.03195396438241,-0.161642834544182,0.943392693996429,6.46249198913574,-1.78581035137177,0.289073497056961,1.85710847377777,0.428755640983582,0.298218697309494,-0.71421492099762,0.344831556081772,2.07535314559937
83,0.176015928387642,-0.065858922898769,1.02323174476624,8.38794612884522,-2.44422221183777,-0.438307493925095,1.85777711868286,0.428533881902695,0.295654058456421,-0.648521065711975,0.316677421331406,2.09258222579956
84,0.361460417509079,-0.060062553733587,1.09454214572907,8.04175472259522,0.33966988325119,0.352710664272308,1.85778737068176,0.427809089422226,0.295459449291229,-0.577184617519379,0.340431153774261,2.08577156066895
85,0.412651598453522,-0.309845238924026,1.05503845214844,8.06211757659912,1.16272068023682,-0.415601044893265,1.85852956771851,0.427662342786789,0.295339435338974,-0.517488539218903,0.293459504842758,2.10223078727722
86,0.050488468259573,-0.06387086212635,1.11503577232361,7.83729839324951,0.146411642432213,-0.828462600708008,1.85846519470215,0.42693504691124,0.29346090555191,-0.46106767654419,0.313414752483368,2.08426284790039
87,0.237813651561737,-0.78853440284729,1.04322409629822,7.06735801696777,0.683278143405914,-1.1020975112915,1.85845303535461,0.42633393406868,0.293376415967941,-0.415675908327103,0.318910121917725,2.06713128089905
88,0.525443613529205,-0.354029983282089,0.915926277637482,5.87804841995239,0.728679716587067,-0.022469123825431,1.85850596427917,0.425956279039383,0.293285191059113,-0.398818880319595,0.312664180994034,2.05875706672668
89,0.381935298442841,-0.391761362552643,0.836634933948517,4.97199106216431,0.0776432082057,0.187171384692192,1.85949039459229,0.424780368804932,0.292979419231415,-0.231587961316109,0.226227626204491,2.09311628341675
90,0.212608605623245,-0.587959945201874,1.06635701656342,7.3974928855896,0.216259181499481,0.203801423311234,1.85958743095398,0.424235731363297,0.292397439479828,-0.179305836558342,0.223236694931984,2.08867311477661
91,0.029987806454301,-0.408239305019379,1.02057385444641,7.6363730430603,-0.56579065322876,-1.02278017997742,1.86033546924591,0.424078822135925,0.292176306247711,-0.127514287829399,0.181621834635735,2.09245562553406
92,0.149518877267838,-0.197796955704689,1.07834112644196,9.65087032318115,-1.90763652324677,-0.111832611262798,1.86030566692352,0.423347026109695,0.291993916034698,-0.032962080091238,0.228885546326637,2.08429098129272
93,0.145949333906174,-0.066535398364067,1.00837361812592,9.07747173309326,-2.59925866127014,0.133508831262589,1.86095023155212,0.422957450151444,0.290787070989609,0.047107465565205,0.213801592588425,2.09518432617187
94,0.132364273071289,-0.150035217404366,1.01337492465973,5.46943283081055,-1.32749688625336,-0.025909693911672,1.86074638366699,0.422384828329086,0.290608257055283,0.069367840886116,0.277626484632492,2.0837607383728
95,0.127128601074219,-0.07487415522337,1.0529043674469,3.89640212059021,-2.47939348220825,-0.803290486335754,1.86053621768951,0.421959191560745,0.290463864803314,0.073790602385998,0.341171771287918,2.06960105895996
96,0.613485813140869,-0.341543436050415,1.0676064491272,4.08188199996948,-2.78513145446777,-0.523638188838959,1.86109507083893,0.420433521270752,0.289097785949707,0.232457786798477,0.340425699949264,2.08014702796936
97,0.445342361927033,-0.367579847574234,1.04582262039185,3.82389903068542,-1.89095163345337,0.474563747644424,1.86085200309753,0.420034050941467,0.288982659578323,0.226350516080856,0.409303456544876,2.07410860061645
98,0.103362284600735,-0.262152403593063,1.0096253156662,3.73123121261597,-1.33336055278778,-0.365045756101608,1.86145961284637,0.419237941503525,0.288839608430862,0.288612067699432,0.38341411948204,2.07977819442749
99,0.151883825659752,-0.492379277944565,1.02910375595093,3.47580623626709,-1.87171101570129,-0.556371569633484,1.8606059551239,0.418806970119476,0.288810759782791,0.269150942564011,0.49459445476532,2.06376791000366
100,0.351299285888672,-0.543609619140625,1.04618382453918,2.95721578598022,-2.39642477035522,-0.345271378755569,1.8619772195816,0.417472928762436,0.289127498865128,0.394631445407867,0.382987886667252,2.07119989395142
101,0.141068071126938,-0.135277017951012,1.04837024211884,3.7640016078949,-0.454575270414352,0.398841112852097,1.86269021034241,0.416584968566895,0.28911104798317,0.452202469110489,0.340324580669403,2.07689785957336
102,0.066913783550263,-0.61607426404953,1.10992419719696,3.28611445426941,-3.96365427970886,-0.514951765537262,1.86330425739288,0.415714353322983,0.289162039756775,0.500683069229126,0.326676219701767,2.07410955429077
103,0.181111082434654,-0.321431815624237,0.999483048915863,2.96470475196838,-1.8734564781189,-0.126517444849014,1.86324024200439,0.414821118116379,0.289583444595337,0.53680807352066,0.379446923732758,2.07050800323486
104,0.205696508288383,-0.032340407371521,1.06534242630005,1.69572257995605,-3.58289456367493,-0.78555816411972,1.86310815811157,0.41475722193718,0.289876908063889,0.474460601806641,0.440126121044159,2.06109690666199
105,0.549819946289063,-0.408506810665131,1.10301411151886,1.22202181816101,-3.37638735771179,-0.696310758590698,1.86445152759552,0.414682984352112,0.290226250886917,0.414483785629272,0.351682245731354,2.04940032958984
106,0.33732795715332,-0.78454577922821,1.02328646183014,1.2947713136673,-4.44099617004395,-0.748371720314026,1.86418771743774,0.414612025022507,0.290417462587357,0.366848438978195,0.448899805545807,2.04383182525635
107,0.151579067111015,-0.224268525838852,1.05955696105957,1.97235834598541,-3.33512187004089,-0.895412087440491,1.86470830440521,0.412353366613388,0.290698051452637,0.551022529602051,0.470688045024872,2.03200554847717
108,0.019834741950035,-0.0837517157197,0.990007936954498,0.49037230014801,-4.29914999008179,-1.82800006866455,1.8644677400589,0.412351489067078,0.29119023680687,0.488768100738525,0.567300260066986,2.01917195320129
109,0.146208241581917,0.013324555009604,1.0399512052536,1.171053647995,-3.10915613174438,-1.21090984344482,1.864954829216,0.41161984205246,0.287714958190918,0.502112627029419,0.574156761169434,2.00061631202698
110,0.239983260631561,0.000334180454956,0.931228995323181,0.654382467269897,-1.18035769462585,-1.49777400493622,1.86476385593414,0.410193562507629,0.287834078073502,0.584982573986053,0.645252704620361,1.98862445354462
111,0.053877666592598,-0.010777357034385,1.10026478767395,0.143144533038139,-0.972811102867126,-1.59610724449158,1.86471509933472,0.408727318048477,0.287939995527267,0.651335835456848,0.678375661373138,1.97363388538361
112,0.093813970685005,-0.073843635618687,0.949413239955902,-1.90674924850464,-1.73341834545136,-2.07246136665344,1.86592149734497,0.407962650060654,0.288212478160858,0.597494184970856,0.57682865858078,1.94029033184052
113,0.463932722806931,-0.205299586057663,1.06395280361176,-1.91738784313202,0.200530931353569,-1.6711905002594,1.86591565608978,0.40826341509819,0.287416756153107,0.469904601573944,0.592298269271851,1.92924106121063
114,0.306854009628296,-0.421364694833756,0.980281233787537,-4.0271487236023,0.140299767255783,-1.45438945293427,1.86607789993286,0.405505210161209,0.28745099902153,0.618812024593353,0.584570944309235,1.9057674407959
115,0.101357400417328,-0.278932273387909,1.05359184741974,-3.0378086566925,0.341580718755722,-1.69757914543152,1.86690032482147,0.405732095241547,0.287822991609573,0.451902747154236,0.50407338142395,1.88568770885468
116,0.317512392997742,-0.162715822458267,0.998220682144165,-3.88594365119934,-0.945704340934753,-2.29829525947571,1.86692667007446,0.406225442886352,0.289231806993484,0.288182318210602,0.522033393383026,1.87433469295502
117,0.103810615837574,-0.17859810590744,1.07513415813446,-1.65147113800049,0.156046628952026,-1.85946047306061,1.86707067489624,0.404100656509399,0.289482861757278,0.405864953994751,0.536125957965851,1.84625935554504
118,0.193020895123482,-0.006316749379039,0.9763423204422,1.01621663570404,-1.6028265953064,-1.82688999176025,1.86696350574493,0.404233247041702,0.289900809526443,0.324394226074219,0.58261650800705,1.83542907238007
119,0.020935721695423,-0.560807526111603,1.02521538734436,1.25281631946564,-1.01207113265991,-2.57861256599426,1.86691677570343,0.401111364364624,0.290019780397415,0.56278258562088,0.627158045768738,1.80276322364807
120,0.103966802358627,-0.436534911394119,1.02677750587463,2.62393021583557,-3.15074896812439,-2.86142349243164,1.86676466464996,0.401082873344421,0.290467262268066,0.503697633743286,0.687142431735992,1.7841831445694
121,0.074594862759113,-0.129298001527786,0.970392405986786,0.459947228431702,-0.261478543281555,-3.02450132369995,1.86592590808868,0.400596588850021,0.290825933218002,0.482476592063904,0.801067888736725,1.77042531967163
122,0.068374112248421,-0.054251976311207,1.09107482433319,-0.765596508979797,1.12477767467499,-3.74569892883301,1.86665618419647,0.398932278156281,0.291177183389664,0.519730031490326,0.709249317646027,1.72099828720093
123,0.076519913971424,-0.022993091493845,0.974699676036835,-4.28693771362305,2.4509425163269,-2.9862756729126,1.86604583263397,0.398632109165192,0.294388055801392,0.420047700405121,0.752463042736053,1.70512425899506
124,0.028022885322571,0.1274194419384,1.07709860801697,-5.22718667984009,3.89249515533447,-3.63141512870789,1.86693584918976,0.396461009979248,0.294947236776352,0.458771765232086,0.613178312778473,1.64415669441223
125,0.058538448065519,-0.270434588193893,0.927675366401672,-7.81187915802002,3.03682327270508,-4.48712253570557,1.86723446846008,0.395395845174789,0.295560598373413,0.386865139007568,0.544799745082855,1.59592866897583
126,0.217414915561676,-0.181377336382866,1.02693116664886,-6.35208177566528,3.57336449623108,-5.33732461929321,1.86754870414734,0.395297735929489,0.293963581323624,0.230641812086105,0.478360444307327,1.54967927932739
127,0.14023819565773,-0.606486022472382,1.00162959098816,-6.9625735282898,1.17640221118927,-4.64108085632324,1.86775100231171,0.39430233836174,0.294453203678131,0.158199951052666,0.437159925699234,1.50164198875427
128,0.245193436741829,-0.572005093097687,1.12038195133209,-7.7596287727356,0.85124409198761,-4.39078283309937,1.86724042892456,0.39350950717926,0.295012474060059,0.07170481979847,0.494574666023254,1.46395742893219
129,0.032980132848024,-0.136606514453888,1.10367357730865,-2.3984203338623,-2.0163369178772,-4.89778804779053,1.86711776256561,0.391564160585403,0.293638497591019,0.139159366488457,0.534480273723602,1.41124153137207
130,0.021518362686038,-0.036589987576008,0.933696806430817,-1.42220962047577,-3.00852203369141,-5.97357797622681,1.86700654029846,0.390141427516937,0.294153183698654,0.164280146360397,0.573344171047211,1.35568594932556
131,0.05562125518918,0.013243463821709,0.991310834884644,0.24629420042038,0.372005939483643,-3.67989659309387,1.8669650554657,0.388630449771881,0.294624149799347,0.204002320766449,0.588434994220734,1.31091701984406
132,0.004632232710719,0.077849514782429,1.02999591827393,0.029060944914818,-1.95019578933716,-4.77001619338989,1.86681067943573,0.38716533780098,0.295085370540619,0.231925711035728,0.618546962738037,1.26513540744782
133,0.211866363883018,-0.044646795839071,0.923464000225067,-2.20779323577881,-1.54151606559753,-5.07248163223267,1.86663544178009,0.386613667011261,0.294893711805344,0.154722943902016,0.649012982845306,1.21941244602203
134,0.274711459875107,-0.422554045915604,0.955114662647247,-4.20350456237793,2.340172290802,-4.11588478088379,1.86743021011353,0.386174231767654,0.295416206121445,0.038663953542709,0.535950720310211,1.17113363742828
135,0.42877185344696,-0.415002346038818,1.08144736289978,-6.7051043510437,2.04866290092468,-5.06838321685791,1.86759102344513,0.383467048406601,0.295709699392319,0.128930419683456,0.496265143156052,1.10605454444885
136,0.242849171161652,-0.472020387649536,1.00253105163574,-6.27369594573975,1.94198822975159,-4.87367916107178,1.86851119995117,0.381586402654648,0.296210199594498,0.113941811025143,0.372741639614105,1.04666233062744
137,0.273529320955276,-0.344420403242111,0.95410031080246,-8.20426845550537,1.82567262649536,-4.71376514434814,1.8680431842804,0.382390588521957,0.296896457672119,-0.163582041859627,0.403670966625214,1.01805663108826
138,0.070424973964691,-0.299310684204102,1.08282065391541,-8.35947608947754,2.80543637275696,-4.59363174438477,1.86827611923218,0.381454199552536,0.297384291887283,-0.261235386133194,0.356510013341904,0.971344947814941
139,0.143413677811623,-0.207390859723091,1.01076471805573,-6.32981491088867,0.711800396442413,-5.08484220504761,1.86838114261627,0.378915846347809,0.297509223222733,-0.181758001446724,0.343565106391907,0.913501143455505
140,0.121932610869408,-0.276182919740677,0.913727879524231,-3.16330409049988,-0.820492148399353,-4.8919243812561,1.86838293075562,0.378439575433731,0.298024952411652,-0.281522184610367,0.355901509523392,0.868209660053253
141,0.067109487950802,-0.091548457741737,1.00204360485077,-2.55784845352173,-0.695309579372406,-4.55225276947022,1.86825454235077,0.37635201215744,0.298370271921158,-0.205992892384529,0.392043083906174,0.820155084133148
142,0.069940596818924,-0.013506703078747,1.03504824638367,-0.666439950466156,-2.61336278915405,-4.26547479629517,1.86948013305664,0.376473069190979,0.29831126332283,-0.336282074451447,0.295263737440109,0.782673299312592
143,0.040587715804577,-0.134480148553848,0.949339330196381,-1.0263466835022,-1.14602982997894,-3.75300574302673,1.86929726600647,0.375052690505982,0.298692375421524,-0.310156226158142,0.353421062231064,0.740863621234894
144,0.334789127111435,-0.333530753850937,0.962447643280029,1.07194769382477,-1.60555422306061,-4.64410495758057,1.86843883991241,0.37343567609787,0.299029350280762,-0.256772696971893,0.470598459243774,0.692172229290008
145,0.033652920275927,-0.291246771812439,1.00633382797241,-0.146977320313454,-3.93179774284363,-4.28301954269409,1.8674088716507,0.372592657804489,0.299415290355682,-0.298135936260223,0.603808581829071,0.646204352378845
146,0.002145273145288,0.128337547183037,1.04010045528412,-1.98259198665619,-2.04350471496582,-3.9796507358551,1.86732494831085,0.37141227722168,0.295975029468536,-0.30156335234642,0.622743785381317,0.603934705257416
147,0.141274482011795,-0.280021160840988,1.27102410793304,-2.89434266090393,-0.743129909038544,-3.83720469474792,1.86884021759033,0.369601130485535,0.296298325061798,-0.251334309577942,0.463207602500915,0.569200992584229
148,0.30803570151329,-0.185202166438103,1.03889143466949,-2.09895038604736,1.46820020675659,-4.1705322265625,1.86902678012848,0.369178146123886,0.296878159046173,-0.349380344152451,0.417574673891068,0.533048033714294
149,0.605975449085236,0.11382607370615,1.05414760112762,-2.71298766136169,3.40658140182495,-3.82936906814575,1.86943924427032,0.368022233247757,0.294577807188034,-0.355315655469894,0.34003010392189,0.498105376958847
150,0.048729870468378,-0.151971742510796,0.975107252597809,-3.23295021057129,4.04407024383545,-3.82063817977905,1.87047564983368,0.366961151361466,0.294961154460907,-0.373343735933304,0.208845466375351,0.466300040483475
151,0.075697682797909,0.013281431049109,0.983542680740356,-2.01512122154236,0.768496990203857,-3.97460341453552,1.86908495426178,0.365367263555527,0.295370191335678,-0.374677449464798,0.343579083681107,0.411675304174423
152,0.034464955329895,-0.469934970140457,0.999838054180145,-3.78159236907959,-0.105356760323048,-3.89277696609497,1.86833691596985,0.365519851446152,0.294293493032455,-0.541343867778778,0.423609018325806,0.366999834775925
153,0.00353937363252,-0.290728658437729,1.04893386363983,-0.075263701379299,-1.28022909164429,-4.43738412857056,1.86745321750641,0.363953560590744,0.29455828666687,-0.504583656787872,0.519547700881958,0.315605700016022
154,0.301819175481796,-0.12785105407238,0.987631857395172,0.636000454425812,-1.22553086280823,-3.38791298866272,1.86736285686493,0.361654996871948,0.294787347316742,-0.367255210876465,0.529494404792785,0.280620992183685
155,0.259949266910553,-0.203796535730362,0.930705070495606,2.11372470855713,1.68008756637573,-3.2891411781311,1.86738657951355,0.360882788896561,0.295116811990738,-0.380605727434158,0.506323516368866,0.252526730298996
156,0.075654692947865,0.036802768707275,1.02545082569122,1.01716530323029,2.89002418518066,-3.25895500183105,1.86754763126373,0.359486013650894,0.291624426841736,-0.320960640907288,0.453102231025696,0.224840581417084
157,0.051184467971325,0.083911947906017,1.00667905807495,-0.174099519848824,4.82503795623779,-3.57268619537354,1.86778831481934,0.359693884849548,0.291826009750366,-0.441600531339645,0.376327484846115,0.195004090666771
158,0.044146321713925,-0.625251352787018,0.973358690738678,-0.601134121417999,6.92731904983521,-4.14483165740967,1.8682256937027,0.359900146722794,0.29200467467308,-0.547119975090027,0.259983420372009,0.167458891868591
159,0.132865861058235,-0.770249307155609,0.980356276035309,0.782131969928741,4.79225873947144,-3.11856889724731,1.86852967739105,0.356992185115814,0.291317224502563,-0.338692247867584,0.174753725528717,0.138394623994827
160,0.079556375741959,-0.060960985720158,1.07132828235626,-0.765548348426819,4.58378028869629,-2.87353658676147,1.86881566047668,0.357952117919922,0.291589885950088,-0.541217029094696,0.100350335240364,0.114562265574932
161,-0.068635568022728,0.021380078047514,1.00754189491272,-0.285423159599304,3.48011779785156,-2.74607753753662,1.86912262439728,0.357353210449219,0.291724681854248,-0.56060266494751,0.036706749349833,0.092288725078106
162,0.260573148727417,-0.062848635017872,0.971629500389099,4.27460289001465,-3.04130005836487,-3.70065069198608,1.86888074874878,0.354946494102478,0.291833579540253,-0.374715775251389,0.082519054412842,0.054309640079737
163,0.264256745576859,-0.162992894649506,1.02286326885223,4.46653270721436,-3.70607614517212,-2.35725092887878,1.86871612071991,0.353224188089371,0.291903674602509,-0.256666451692581,0.129639819264412,0.028700517490506
164,0.229309365153313,-0.210962623357773,1.05590486526489,5.6541018486023,-4.67143058776856,-1.9974250793457,1.86835300922394,0.352735936641693,0.292156457901001,-0.27281242609024,0.208800911903381,-0.001261543016881
165,0.518121361732483,-0.033815983682871,0.987487256526947,5.52655124664307,-5.78175210952759,-2.33597469329834,1.86794650554657,0.352289915084839,0.292427539825439,-0.286607086658478,0.291233569383621,-0.033693484961987
166,0.425826281309128,-0.106650575995445,1.04283773899078,4.08947992324829,-1.21973729133606,-1.76676714420319,1.8694258928299,0.351608514785767,0.291792243719101,-0.20187520980835,0.142023921012878,-0.019998012110591
167,0.063136175274849,0.132425978779793,0.970900475978851,5.89746952056885,-1.87813270092011,-1.82022202014923,1.86948776245117,0.350660979747772,0.291933923959732,-0.143489301204681,0.138195544481277,-0.031741052865982
168,0.171694532036781,-0.164779111742973,0.925391316413879,1.55053126811981,-0.252712190151215,-2.76393532752991,1.86948382854462,0.349739253520966,0.292033344507217,-0.124530032277107,0.142825111746788,-0.056324977427721
169,0.198921397328377,-0.238177537918091,1.08610248565674,1.4031765460968,0.415867239236832,-1.6400945186615,1.8680272102356,0.349256187677383,0.29253613948822,-0.202625900506973,0.275489777326584,-0.099923454225063
170,0.190917983651161,-0.207080841064453,1.09117674827576,0.940967082977295,0.437053561210632,-1.40688252449036,1.8688850402832,0.348670840263367,0.292738288640976,-0.196764588356018,0.17075377702713,-0.100989580154419
171,0.392884463071823,-0.143090054392815,1.01458561420441,2.63635158538818,2.86281704902649,-0.407455563545227,1.86925196647644,0.346583932638168,0.292835265398026,-0.025275072082877,0.103657498955727,-0.091561175882816
172,0.293536484241486,-0.730030238628387,1.06245577335358,3.84581232070923,1.29588305950165,-1.09853768348694,1.86936247348785,0.345689505338669,0.291712045669556,0.00266937026754,0.079972617328167,-0.102817334234715
173,0.085151858627796,-0.266357243061066,1.07126557826996,3.73125696182251,0.159771829843521,-0.510038793087006,1.86945676803589,0.34537672996521,0.292013049125671,-0.03148503229022,0.063751637935639,-0.113862559199333
174,0.201048851013184,0.072264567017555,1.00626492500305,3.41937041282654,0.195130109786987,-0.959315061569214,1.86869132518768,0.344338774681091,0.292296141386032,0.002375787589699,0.140057995915413,-0.132403075695038
175,0.536137700080872,-0.182488545775413,0.940670073032379,3.39590764045715,-2.44969940185547,-0.288423329591751,1.86865854263306,0.343418002128601,0.29301854968071,0.029552839696407,0.150932550430298,-0.135464668273926
176,0.288655132055283,-0.094732493162155,1.09623670578003,1.70183289051056,-2.6898353099823,-0.406431645154953,1.86934435367584,0.342024654150009,0.293254286050797,0.11284039914608,0.0988789498806,-0.12924337387085
177,0.500986814498901,-0.239071235060692,1.04461848735809,3.09953117370605,-0.766545236110687,-0.51105409860611,1.86924850940704,0.341767191886902,0.293692648410797,0.050515752285719,0.118556283414364,-0.144440412521362
178,0.446415215730667,-0.259232342243195,0.935302734375,1.07009088993073,-1.97155916690826,-1.22155141830444,1.86925148963928,0.341574728488922,0.294128775596619,-0.014024102129042,0.124650970101356,-0.163101047277451
179,0.22819085419178,-0.194537311792374,1.0671421289444,2.02378749847412,1.09308159351349,-0.830487966537476,1.87077927589417,0.340249687433243,0.292728006839752,0.079860337078571,-0.023578708991408,-0.161155194044113
180,0.197787284851074,0.002288747578859,1.01208019256592,2.02925634384155,0.011786288581789,-1.05564093589783,1.87013852596283,0.339401453733444,0.293072313070297,0.084500886499882,0.042089059948921,-0.173923000693321
181,0.203733041882515,-0.324285477399826,1.00695776939392,0.523858368396759,0.304376393556595,-0.903763830661774,1.87022471427917,0.337357431650162,0.293254107236862,0.235332772135735,0.037964809685946,-0.169552400708199
182,0.396661967039108,-0.291897505521774,1.02116203308105,2.74561595916748,-0.181314364075661,-1.84689128398895,1.8702392578125,0.336526840925217,0.2918681204319,0.239539682865143,0.045646090060473,-0.190229475498199
183,0.485664010047913,-0.007711492944509,1.08862280845642,2.77527403831482,-3.90026783943176,-2.37442898750305,1.87002527713776,0.336196839809418,0.292248368263245,0.188229769468308,0.096437491476536,-0.221818417310715
184,0.693990826606751,-0.297555476427078,1.03329181671143,-0.178264006972313,-1.91052150726318,-1.39205253124237,1.86917102336884,0.335487514734268,0.292633771896362,0.161613702774048,0.198698684573174,-0.240896224975586
185,0.496842294931412,-0.450494229793549,1.01489949226379,-1.29182362556458,-2.2261700630188,-1.59253549575806,1.87048649787903,0.334179788827896,0.290993124246597,0.197535589337349,0.087509326636791,-0.254189968109131
186,0.04329239949584,-0.537310004234314,1.0773401260376,-1.1404128074646,-3.82082438468933,-2.83073019981384,1.87027728557587,0.33412891626358,0.291379779577255,0.085579745471478,0.142375439405441,-0.291109293699264
187,-0.011327307671309,-0.046888448297978,1.05904459953308,-0.979582786560059,-1.0232218503952,-1.98610270023346,1.8701376914978,0.332224518060684,0.291623681783676,0.197079807519913,0.185190141201019,-0.29984712600708
188,0.280168384313583,0.074989199638367,1.05925488471985,-0.50523567199707,-3.43239164352417,-2.55275559425354,1.86995542049408,0.331546247005463,0.292044162750244,0.160136818885803,0.228123530745506,-0.328222334384918
189,0.202371776103973,-0.246111199259758,0.949383318424225,-0.100695930421352,0.465087532997131,-2.25913763046265,1.86983644962311,0.330795794725418,0.292768180370331,0.138328373432159,0.247002705931663,-0.356204390525818
190,0.119501180946827,-0.465061098337174,1.07131636142731,0.975946545600891,0.590932071208954,-2.5502917766571,1.86978256702423,0.329995721578598,0.293177217245102,0.134454354643822,0.248893767595291,-0.383257359266281
191,0.147075414657593,-0.12550562620163,1.0652277469635,0.61730432510376,1.316725730896,-2.18957543373108,1.86975038051605,0.329860806465149,0.293712437152863,0.055317770689726,0.241657763719559,-0.412106364965439
192,0.512333273887634,-0.384019374847412,1.04420459270477,1.49408841133118,1.63722014427185,-2.6636598110199,1.86981010437012,0.328288733959198,0.297628343105316,0.140344753861427,0.217488706111908,-0.429489493370056
193,0.140467807650566,-0.265529006719589,0.966500282287598,1.94025778770447,2.43266415596008,-1.52102172374725,1.86986362934113,0.326779633760452,0.298262238502502,0.223219767212868,0.196977540850639,-0.44418215751648
194,0.027827918529511,-0.179302915930748,1.01239514350891,1.58385157585144,2.39397573471069,-2.31352162361145,1.86924242973328,0.327281802892685,0.299117594957352,0.091809175908566,0.231044694781303,-0.472805052995682
195,0.089719571173191,-0.0234997253865,1.03776466846466,0.773878276348114,1.28164863586426,-1.96060407161713,1.86922061443329,0.325737118721008,0.301556050777435,0.173303961753845,0.218106523156166,-0.489816963672638
196,0.191218689084053,-0.289977848529816,1.0609622001648,0.957098841667175,0.438862025737762,-2.11522269248962,1.86990475654602,0.32488802075386,0.302453011274338,0.164962470531464,0.142834097146988,-0.513546586036682
197,0.223371252417564,-0.467097193002701,0.98077255487442,-0.113140888512135,0.825598776340485,-1.61289608478546,1.87066519260407,0.324007749557495,0.303361743688583,0.158738061785698,0.065742187201977,-0.535784184932709
198,0.155127927660942,-0.466835975646973,0.99274343252182,-0.547715187072754,-1.28098678588867,-2.11328792572021,1.87052083015442,0.322669714689255,0.304207354784012,0.20755335688591,0.10218907892704,-0.552335679531097
199,0.047496549785137,-0.594132542610168,0.976600766181946,0.461998343467712,-2.91031551361084,-2.35788297653198,1.87035608291626,0.321914136409759,0.303618431091309,0.202102571725845,0.148630186915398,-0.572776079177856
200,0.097885414958,-0.135578021407127,0.988150298595428,1.08732497692108,-4.48272705078125,-1.08773064613342,1.87001717090607,0.321143567562103,0.304404407739639,0.193434238433838,0.22188837826252,-0.586225271224976
201,0.241652071475983,-0.094646744430065,0.984280705451965,-1.6821357011795,-5.36441516876221,-2.10076069831848,1.86973774433136,0.319845497608185,0.305116683244705,0.220024287700653,0.289695024490356,-0.600978136062622
202,0.155072554945946,-0.004502243362367,1.04397261142731,-0.976283431053162,-3.45997142791748,-1.91803050041199,1.86807918548584,0.31866979598999,0.306804150342941,0.239689633250236,0.471340030431747,-0.608181536197662
203,0.013576248660684,-0.021105788648129,0.988654971122742,-2.05674910545349,-3.35201358795166,-1.40066230297089,1.86788582801819,0.318793386220932,0.30776184797287,0.100069209933281,0.486452549695969,-0.630090892314911
204,0.156097277998924,0.003577801166102,1.01493382453918,-5.46306371688843,2.03322386741638,-2.37285423278809,1.8680853843689,0.31758514046669,0.30861097574234,0.077695086598396,0.422392070293427,-0.656338036060333
205,0.2673200070858,0.079279847443104,1.00696432590485,-5.18294811248779,5.50989580154419,-2.8043224811554,1.8699254989624,0.315570950508118,0.306178897619247,0.112364247441292,0.179754421114922,-0.693670392036438
206,0.176913291215897,-0.574675977230072,0.96780925989151,-5.19401597976685,7.65546894073486,-1.81266033649445,1.86970818042755,0.315940946340561,0.306928902864456,-0.066690906882286,0.126990884542465,-0.71469634771347
207,0.1902746707201,-0.55910986661911,0.932941675186157,-5.62961530685425,8.66014003753662,-1.9792298078537,1.86943066120148,0.313387721776962,0.307421565055847,0.03794427216053,0.075819067656994,-0.726413905620575
208,0.04442660883069,-0.105961956083775,1.00296437740326,-5.49209976196289,5.87724828720093,-0.901139140129089,1.86978709697723,0.312916278839111,0.308029413223267,-0.069517925381661,-0.013132740743458,-0.74161684513092
209,0.146313384175301,-0.120337218046188,0.945092141628265,-3.59585928916931,2.82861495018005,-1.20847547054291,1.86988723278046,0.31170317530632,0.308534145355225,-0.084988720715046,-0.042194627225399,-0.75099527835846
210,0.099970512092114,-0.285758405923843,0.98572701215744,-1.36980295181274,-0.188873410224915,-0.690975844860077,1.86982023715973,0.31099596619606,0.30905020236969,-0.125517383217812,-0.027020778506994,-0.758858382701874
211,0.272092491388321,-0.057444356381893,0.947312951087952,0.600821793079376,-4.66713666915894,-0.537153720855713,1.86945796012878,0.309547543525696,0.309481054544449,-0.069637589156628,0.050063878297806,-0.76037985086441
212,0.136892914772034,0.006082431413233,0.950572371482849,2.07005214691162,-7.3050856590271,-1.01487267017365,1.86903643608093,0.307222068309784,0.309996724128723,0.076816782355309,0.164022102952003,-0.760364294052124
213,0.034041441977024,-0.112277619540691,1.21356534957886,2.40036344528198,-10.6389598846436,-1.1004730463028,1.86811721324921,0.307170003652573,0.310643047094345,-0.02034866437316,0.34124544262886,-0.775517880916595
214,0.024708217009902,-0.034877765923739,1.02958714962006,0.489962607622147,-5.73176431655884,-0.39148023724556,1.8670392036438,0.30709645152092,0.311346769332886,-0.101914532482624,0.465036183595657,-0.781995356082916
215,0.075902096927166,-0.038903396576643,0.972954034805298,0.08176726102829,-0.572088837623596,-0.48216450214386,1.86703360080719,0.30566680431366,0.310151666402817,-0.054549247026444,0.447715044021606,-0.785385191440582
216,0.028733171522617,-0.148843809962273,1.00348377227783,-3.73788857460022,2.27960920333862,-0.468097060918808,1.86727011203766,0.304387927055359,0.310678780078888,-0.059596300125122,0.369142770767212,-0.789484918117523
217,0.045885760337114,-0.434087693691254,1.00815629959106,-4.58698415756226,7.91280937194824,-0.305353194475174,1.8685257434845,0.303113669157028,0.311234325170517,-0.086213730275631,0.169141501188278,-0.79445081949234
218,0.133891835808754,-0.569723606109619,0.963777303695679,-5.48035335540772,9.66165065765381,-0.418935060501099,1.86907863616943,0.302704811096191,0.309461712837219,-0.195148959755898,0.024121880531311,-0.796390116214752
219,0.105125270783901,-0.195476233959198,0.980437338352203,-6.55054235458374,8.90388011932373,1.10585761070251,1.86883223056793,0.302402198314667,0.309867113828659,-0.313908576965332,-0.034432716667652,-0.790926873683929
220,0.065924882888794,0.082785233855248,0.962184190750122,-4.31910610198975,6.24723148345947,1.21462464332581,1.86923778057098,0.300427913665771,0.310129523277283,-0.256661057472229,-0.132512092590332,-0.776217937469482
221,0.04170635715127,-0.37159451842308,0.954665124416351,-3.18462204933166,2.49289274215698,1.59103226661682,1.86850702762604,0.30063259601593,0.310569435358047,-0.402605921030045,-0.088483922183514,-0.77028089761734
222,0.101491339504719,-0.317809760570526,0.976307690143585,0.103871889412403,-2.57517409324646,1.92631506919861,1.8684059381485,0.299138456583023,0.311681538820267,-0.334778845310211,-0.062791511416435,-0.749287903308868
223,0.229796648025513,-0.157264888286591,0.982217133045196,3.70016431808472,-5.82294702529907,2.25382471084595,1.86884605884552,0.297411739826202,0.311914592981338,-0.212684407830238,-0.053304258733988,-0.722424507141113
224,0.074090071022511,-0.098969608545303,0.937523365020752,6.15321111679077,-9.6295747756958,1.3210027217865,1.86821305751801,0.296286553144455,0.312163352966309,-0.148368433117867,0.08379340916872,-0.710146427154541
225,0.004426522646099,-0.17573119699955,1.02744853496552,5.51905202865601,-6.75146245956421,1.8931211233139,1.86861443519592,0.295906037092209,0.311016976833343,-0.145419701933861,0.106149815022945,-0.694356977939606
226,0.110923796892166,-0.008951626718044,1.04056107997894,6.75380945205689,-4.37954378128052,1.24055445194244,1.86746227741241,0.294656664133072,0.311177670955658,-0.056149389594793,0.254918545484543,-0.682446300983429
227,0.249139174818993,-0.064731739461422,1.00871682167053,0.867319226264954,-3.18512940406799,2.29612112045288,1.86725533008575,0.293770760297775,0.311388581991196,-0.05203303322196,0.289197862148285,-0.661806583404541
228,0.106180489063263,0.0671212002635,0.988507807254791,-3.26946473121643,2.64604926109314,2.07602596282959,1.86726748943329,0.292466729879379,0.311015158891678,-0.047484733164311,0.264918833971024,-0.63695353269577
229,0.149765580892563,-0.176272228360176,0.995170831680298,-4.61291646957397,3.91067719459534,1.96616208553314,1.86744701862335,0.291224032640457,0.311155676841736,-0.064404368400574,0.19351364672184,-0.61183512210846
230,0.092408999800682,-0.284987062215805,0.924213945865631,-5.06012010574341,6.67008590698242,2.89186358451843,1.86780822277069,0.291546702384949,0.311429113149643,-0.249533668160439,0.089260496199131,-0.590829014778137
231,0.12332671135664,-0.152771845459938,0.948859572410584,-7.00558662414551,5.80946588516235,2.21210122108459,1.86825895309448,0.289054304361343,0.311398983001709,-0.161176040768623,-0.016056647524238,-0.558312177658081
232,0.023226978257299,-0.153379783034325,1.07019221782684,-4.57470750808716,2.80626797676086,2.19475078582764,1.86853075027466,0.288678795099258,0.309972614049911,-0.27465358376503,-0.084321618080139,-0.53983336687088
233,0.097740478813648,-0.14096599817276,1.00421583652496,-3.51770639419556,4.25234460830689,2.78230261802673,1.86897015571594,0.286005020141602,0.309853374958038,-0.142155885696411,-0.169058904051781,-0.501451134681702
234,0.15604156255722,-0.212747573852539,0.990095376968384,-1.92790400981903,2.85954523086548,3.10665678977966,1.86922168731689,0.286084771156311,0.310039192438126,-0.284117937088013,-0.219945788383484,-0.478790521621704
235,0.113022223114967,-0.201592743396759,0.991135835647583,0.400504350662231,-0.260516881942749,3.10856604576111,1.86849021911621,0.283878445625305,0.308944255113602,-0.164769724011421,-0.144700109958649,-0.442260175943375
236,0.090102292597294,-0.377471119165421,0.976493179798126,1.08878147602081,-2.43962574005127,2.98659539222717,1.86843883991241,0.283006280660629,0.308906495571136,-0.183065801858902,-0.117040477693081,-0.413310140371323
237,0.078670114278793,-0.460089951753616,1.06592690944672,1.37511467933655,-2.67073655128479,3.40976905822754,1.86815702915192,0.282856732606888,0.308977067470551,-0.273604512214661,-0.060685195028782,-0.388708978891373
238,0.06097898632288,-0.761225938796997,1.01455104351044,1.03866410255432,-4.95627546310425,3.27066230773926,1.86770832538605,0.282579481601715,0.309387177228928,-0.334065854549408,0.026318890973926,-0.361061871051788
239,0.060374360531569,-0.653634130954742,1.04370439052582,2.43494772911072,-2.57856583595276,4.38636684417725,1.86825799942017,0.280340969562531,0.30936187505722,-0.161832898855209,0.011873218230903,-0.302188783884048
240,0.084673404693604,-0.623736679553986,0.982716679573059,3.38477563858032,-0.704324901103973,4.00875663757324,1.86723685264587,0.279951095581055,0.309498518705368,-0.215359285473824,0.113919049501419,-0.27527841925621
241,0.345715373754501,-0.108724817633629,1.00872552394867,1.72083294391632,0.596347391605377,4.83591508865356,1.86711204051971,0.278957158327103,0.311047971248627,-0.198800459504128,0.113081082701683,-0.231547430157661
242,0.253553211688995,-0.062395624816418,1.07462203502655,-0.925635635852814,2.54551768302917,4.91575431823731,1.86890208721161,0.277030646800995,0.311202108860016,-0.089036144316197,-0.085991360247135,-0.164494454860687
243,0.182599648833275,-0.145648419857025,0.950689256191254,-1.50236773490906,3.63658595085144,3.97265219688416,1.86915671825409,0.27700138092041,0.31154003739357,-0.219419181346893,-0.151571691036224,-0.130488947033882
244,0.063178531825543,-0.20854914188385,0.997945666313171,-0.279167532920837,2.12943911552429,4.41035795211792,1.86936795711517,0.276342868804932,0.311760634183884,-0.265284478664398,-0.199014514684677,-0.088328987360001
245,0.103097721934319,-0.462613046169281,1.05117201805115,-2.27305150032043,4.5658016204834,5.54934883117676,1.86903119087219,0.275718122720718,0.311051994562149,-0.322965621948242,-0.208835512399673,-0.040671028196812
246,0.424827814102173,-0.184660121798515,1.00876069068909,0.145931124687195,2.01737380027771,4.48917770385742,1.86924088001251,0.274308264255524,0.311209172010422,-0.26964208483696,-0.242360815405846,0.010220409370959
247,0.677162051200867,0.034423790872097,0.993309736251831,1.67936050891876,-1.32135581970215,5.076744556427,1.86922931671143,0.27346858382225,0.311412632465363,-0.268506586551666,-0.224827170372009,0.062042508274317
248,0.108634114265442,-0.144668087363243,1.00338959693909,2.27362823486328,-0.673167228698731,6.49414014816284,1.86932480335236,0.27194082736969,0.310733139514923,-0.181772708892822,-0.216261371970177,0.132624208927155
249,0.170004144310951,-0.245600432157516,1.36829459667206,3.41058039665222,-2.91782450675964,5.53673219680786,1.86899316310883,0.271647959947586,0.311123758554459,-0.237580239772797,-0.147898286581039,0.174501031637192
250,0.462717533111572,-0.081839874386788,1.06687152385712,5.69616746902466,-3.42759799957275,5.76427507400513,1.86867344379425,0.270447283983231,0.311612188816071,-0.148345500230789,-0.0731186196208,0.234801769256592
251,0.662847518920898,-0.197811394929886,0.91954106092453,4.41396760940552,-1.61670589447021,6.63097667694092,1.86922180652618,0.270110309123993,0.311428785324097,-0.157024547457695,-0.094461046159268,0.29198369383812
252,0.272488474845886,0.027806574478746,0.998706698417664,3.87941980361938,-2.99159288406372,4.54988622665405,1.86893403530121,0.269076824188232,0.311855167150497,-0.10703344643116,-0.029547177255154,0.340662986040115
253,0.014411758631468,-0.115708284080029,1.0214626789093,2.42551016807556,-3.24050879478455,5.02487802505493,1.86884188652039,0.267446756362915,0.312222450971603,-0.005128812044859,0.00403650617227,0.398372113704681
254,0.379696607589722,-0.310698419809341,0.953069806098938,1.48817384243011,-0.295932352542877,4.72184658050537,1.86884188652039,0.26734259724617,0.312751322984695,-0.095294959843159,0.000364294450264,0.434433311223984
255,0.16984324157238,-0.20300717651844,0.958258926868439,0.432790189981461,0.553582429885864,4.82927656173706,1.86905145645142,0.266567468643188,0.311446279287338,-0.090553432703018,-0.0265948548913,0.482306510210037
256,-0.010040394030511,0.059606350958347,1.05239486694336,-0.971377730369568,1.18106520175934,4.3583517074585,1.87000977993011,0.264561653137207,0.311596930027008,0.035965360701084,-0.120794251561165,0.544725656509399
257,0.023151872679591,0.016379311680794,0.973811745643616,-1.92866849899292,3.11143898963928,4.35994005203247,1.87012124061584,0.263835817575455,0.311888486146927,-0.007535787764937,-0.141057953238487,0.585859060287476
258,0.109223365783691,-0.130924537777901,0.95559811592102,-2.31968593597412,2.78427577018738,4.21459579467773,1.8693118095398,0.263119727373123,0.30875152349472,-0.050263751298189,-0.074641548097134,0.619473874568939
259,0.245254665613174,-0.073711574077606,0.914922297000885,-1.90928947925568,1.63804018497467,4.73230361938477,1.86942136287689,0.261127859354019,0.308647274971008,0.050512108951807,-0.091541968286038,0.67491739988327
260,0.072950586676598,-0.328453242778778,1.02478814125061,-0.520642518997192,-0.457120567560196,4.20246028900147,1.86943924427032,0.261083424091339,0.30873242020607,-0.072953186929226,-0.096211224794388,0.705173015594482
261,0.01023397129029,-0.190731212496758,1.00269019603729,-1.12985837459564,-1.39308083057404,3.60410213470459,1.86867678165436,0.260442346334457,0.309175372123718,-0.125425800681114,-0.015966391190887,0.740260660648346
262,0.290461242198944,-0.211468398571014,0.991052865982056,-4.46082210540772,0.852108120918274,4.19471073150635,1.86883938312531,0.260652214288712,0.309253811836243,-0.285300880670547,-0.046344019472599,0.769723832607269
263,0.298417121171951,-0.70475834608078,0.994747638702393,0.051224544644356,3.18327116966248,4.7291316986084,1.86986148357391,0.258583247661591,0.309173852205276,-0.139872416853905,-0.153643041849136,0.827454149723053
264,0.001273374073207,-0.315760523080826,1.0608434677124,2.52567267417908,1.72382581233978,3.9557638168335,1.8698650598526,0.25831350684166,0.309242814779282,-0.191926896572113,-0.169050320982933,0.864873886108398
265,0.043671477586031,-0.173742860555649,0.957524716854095,3.69064450263977,3.8357834815979,5.03315305709839,1.87014627456665,0.25530281662941,0.305862247943878,0.09081794321537,-0.203966856002808,0.93358987569809
266,0.173443123698235,-0.412397533655167,0.95074850320816,4.75748443603516,2.39176392555237,4.54139566421509,1.8701833486557,0.255627185106277,0.305855810642242,-0.023046063259244,-0.231504797935486,0.963354468345642
267,0.307637691497803,-0.101965017616749,1.06311523914337,5.34353160858154,1.61968016624451,4.87387847900391,1.87038600444794,0.254509419202805,0.30565544962883,0.053050115704537,-0.260934561491013,1.01342666149139
268,0.215866535902023,0.006139381788671,0.947123348712921,4.73030710220337,-0.691746294498444,5.16714429855347,1.8712158203125,0.25416761636734,0.305994659662247,0.023792883381248,-0.33804640173912,1.06005549430847
269,0.07469941675663,-0.344498097896576,1.12121033668518,2.29256796836853,-0.90662282705307,6.28531074523926,1.87047469615936,0.253917187452316,0.305984139442444,-0.031086310744286,-0.25592628121376,1.12057161331177
270,0.076752580702305,-0.161813765764236,1.08843874931335,-1.4933089017868,-2.17447066307068,6.09310626983643,1.87131190299988,0.251310437917709,0.305785298347473,0.178387179970741,-0.280945032835007,1.20320248603821
271,0.579293131828308,-0.213269650936127,0.985856056213379,1.46201288700104,-2.85520362854004,5.36247062683106,1.87096524238586,0.251148104667664,0.303217470645905,0.094551853835583,-0.19696618616581,1.2455837726593
272,0.303984791040421,0.020995853468776,1.03250551223755,2.29208326339722,-5.94771766662598,4.21884918212891,1.87046027183533,0.250850915908813,0.3031245470047,0.046541687101126,-0.081073485314846,1.28553307056427
273,0.105055250227451,-0.245205953717232,1.00623619556427,2.66048288345337,-4.18320465087891,5.63797760009766,1.87169635295868,0.249275729060173,0.302926450967789,0.15589065849781,-0.140324354171753,1.34412002563477
274,0.220352977514267,-0.256316006183624,0.992950618267059,2.99933195114136,-3.4789822101593,5.20919132232666,1.87056696414948,0.249023109674454,0.301967263221741,0.106964975595474,0.021165266633034,1.38398575782776
275,0.001021645148285,-0.365750223398209,1.05852687358856,1.55478274822235,-0.969557642936706,4.21944665908814,1.87135767936707,0.247495055198669,0.301782041788101,0.201501712203026,-0.036609198898077,1.43176925182343
276,0.078897356987,-0.592512249946594,0.967832267284393,-0.237161129713058,0.311232477426529,4.07871246337891,1.87144804000855,0.246761366724968,0.301685959100723,0.178925454616547,-0.036493577063084,1.47002840042114
277,0.053698290139437,-0.416119486093521,1.06758558750153,-0.682601153850555,1.21594250202179,4.10311412811279,1.87165033817291,0.245432019233704,0.301528006792068,0.22368498146534,-0.053569979965687,1.5167224407196
278,0.195322528481483,-0.254459768533707,0.988597095012665,-2.40960907936096,2.47129201889038,5.18098211288452,1.87191987037659,0.244183778762817,0.299533993005753,0.243900090456009,-0.088020659983158,1.56754624843597
279,0.139485657215118,-0.123217061161995,1.02449536323547,-1.1639643907547,3.75881862640381,4.41450929641724,1.87127447128296,0.244240909814835,0.299462348222733,0.115475162863731,-0.038686756044626,1.60628187656403
280,0.004302936140448,-0.308121979236603,0.990167856216431,-1.41498041152954,1.27566635608673,3.99961185455322,1.87133097648621,0.2429089397192,0.29922616481781,0.154070392251015,-0.044366415590048,1.65572357177734
281,0.0984772965312,-0.001319260103628,1.0310024023056,-0.452729403972626,-0.719860255718231,4.00438499450684,1.87116181850433,0.242859944701195,0.29774409532547,0.053348701447249,-0.017207840457559,1.69089567661285
282,0.056535635143519,0.015770828351379,1.09288609027863,1.95684921741486,-1.10941815376282,4.3925051689148,1.87036764621735,0.241478398442268,0.297492921352386,0.132069289684296,0.08627150952816,1.74379479885101
283,0.03401579707861,-0.073630161583424,0.907093286514282,3.6061065196991,-1.85795915126801,4.62730836868286,1.87187683582306,0.239654615521431,0.297264993190765,0.26648023724556,-0.061516560614109,1.78884935379028
284,-0.022247219458222,-0.452294290065765,0.97193318605423,3.58502697944641,-2.9196240901947,3.65965294837952,1.87176108360291,0.239463672041893,0.294818729162216,0.212353423237801,-0.023870166391134,1.82047736644745
285,0.148530006408691,-0.119607344269753,0.969161629676819,1.68348169326782,-1.6934562921524,4.23664808273315,1.87182998657227,0.237269729375839,0.294316351413727,0.373560547828674,0.000716079957783,1.86878740787506
286,0.012008877471089,-0.045128237456083,1.13953685760498,-0.494911521673203,-2.35599040985107,4.20210456848145,1.87177085876465,0.237285107374191,0.294116050004959,0.261905282735825,0.026510048657656,1.90372669696808
287,0.161579668521881,0.005937955807894,0.972645461559296,0.415430575609207,-0.582960784435272,3.65707516670227,1.87178170681,0.236477822065353,0.293836891651154,0.254830807447433,0.051580548286438,1.93649005889893
288,0.249101310968399,-0.115532122552395,1.01730823516846,-1.05999195575714,-1.16294121742249,2.63433766365051,1.87249934673309,0.233687460422516,0.293105989694595,0.439443588256836,0.011815313249827,1.96500885486603
289,0.601561188697815,-0.290906548500061,1.01757323741913,0.613981246948242,-0.653045654296875,2.85663747787476,1.87238883972168,0.232194647192955,0.292760521173477,0.489720046520233,0.054790612310171,2.00188636779785
290,0.1595159471035,-0.26825413107872,1.09309232234955,-2.8594343662262,0.025604294613004,3.80627393722534,1.8722620010376,0.232258439064026,0.292738139629364,0.340777158737183,0.084235213696957,2.03477931022644
291,0.046886347234249,-0.197980552911758,1.05549263954163,-4.24479293823242,1.01493835449219,3.19801926612854,1.8715124130249,0.232616648077965,0.293474853038788,0.160516858100891,0.165532886981964,2.0723569393158
292,0.327741056680679,-0.301961004734039,0.960585057735443,-7.57347679138184,-0.590730845928192,1.74271929264069,1.87162554264069,0.230223178863525,0.29330649971962,0.23658213019371,0.15681816637516,2.0950939655304
293,0.236497685313225,-0.275699466466904,1.06044292449951,-5.17120933532715,-0.33778777718544,2.00704026222229,1.87163579463959,0.229881480336189,0.293344408273697,0.100642383098602,0.1471306681633,2.11348414421082
294,0.320384502410889,-0.517261445522308,1.03514516353607,-4.71416234970093,0.951132297515869,1.7406884431839,1.87174272537231,0.228165492415428,0.289496809244156,0.125261858105659,0.124961175024509,2.12943434715271
295,0.144290834665298,-0.240826234221458,1.10458660125732,-5.49775123596191,1.77792620658875,1.76597499847412,1.87200701236725,0.227041810750961,0.289336144924164,0.075628317892552,0.076312862336636,2.1421902179718
296,0.383119583129883,-0.565365493297577,1.03301525115967,-2.07909059524536,2.51167464256287,1.45531332492828,1.87223482131958,0.226490899920464,0.289316326379776,-0.007412808481604,0.026612149551511,2.15280199050903
297,0.205367341637611,-0.703397691249847,1.05094432830811,-0.683036684989929,1.48671793937683,0.731275677680969,1.87249720096588,0.223690062761307,0.289114415645599,0.160404041409493,-0.011870750226081,2.15933322906494
298,0.170489057898521,-0.721193552017212,1.08202362060547,0.521533906459808,1.31539940834045,1.08451843261719,1.87264680862427,0.223773628473282,0.286499291658401,0.04246648401022,-0.041956979781389,2.16912937164307
299,0.104071542620659,-0.221589833498001,1.0122344493866,0.34828382730484,1.58661711215973,0.839688003063202,1.87269973754883,0.223741129040718,0.286509871482849,-0.05787368491292,-0.045360650867224,2.17668032646179
300,0.192955210804939,0.073867738246918,1.04489827156067,0.542798161506653,-0.78595358133316,-0.298947393894196,1.87338376045227,0.221556916832924,0.286347180604935,0.064907059073448,-0.094009712338448,2.17357754707336
301,0.237291440367699,-0.281895130872726,0.987759172916412,1.7323784828186,-1.42658007144928,-0.070755608379841,1.87333047389984,0.220755264163017,0.285560190677643,0.057160962373018,-0.058879248797894,2.17538356781006
302,-0.006363293621689,-0.857964277267456,1.12575650215149,0.542122066020966,-0.634938359260559,0.016094334423542,1.87324666976929,0.219324365258217,0.28550124168396,0.108593821525574,-0.013053685426712,2.17439436912537
303,0.147272184491158,-0.479797601699829,0.982810914516449,0.880677223205566,-1.95405089855194,-0.299263715744019,1.87304890155792,0.219257399439812,0.285661906003952,0.01219024322927,0.040593933314085,2.17419052124023
304,0.40817591547966,-0.121927484869957,1.07192742824554,-0.615022540092468,-4.32519197463989,-0.233615309000015,1.8729168176651,0.217940032482147,0.285789042711258,0.039682283997536,0.100972041487694,2.17380380630493
305,0.160538792610168,-0.711258232593536,0.978805541992188,0.53257954120636,-2.50301194190979,-0.94736921787262,1.87270319461823,0.217262253165245,0.285913556814194,0.003118850989267,0.158211007714272,2.16657996177673
306,-0.001501102466136,-0.512448668479919,1.08493626117706,-1.99215602874756,-0.460357487201691,-0.57365345954895,1.87277281284332,0.215293809771538,0.285962671041489,0.085318341851235,0.160593330860138,2.16133594512939
307,-0.023158891126514,-0.332809180021286,1.0813068151474,-0.499706268310547,0.678401112556458,-2.0605571269989,1.87357497215271,0.21389476954937,0.287071526050568,0.103817231953144,0.071942701935768,2.13847780227661
308,0.279990643262863,-0.075145862996578,1.04091811180115,0.775596082210541,1.36719930171967,-0.768572270870209,1.87381017208099,0.213938221335411,0.287503153085709,-0.017146928235889,0.03448723256588,2.12611532211304
309,0.173518672585487,-0.139108180999756,0.987817108631134,-2.93036556243896,2.55761361122131,-1.41082501411438,1.87474644184113,0.211949378252029,0.287729680538177,0.051866110414267,-0.072318218648434,2.10836315155029
310,0.067722916603088,-0.019626883789897,1.03580605983734,-4.88760757446289,0.647778868675232,-0.803088843822479,1.87413060665131,0.212211593985558,0.288269847631455,-0.128531396389008,-0.009711004793644,2.10035276412964
311,0.309097021818161,-0.306813061237335,1.03084313869476,-3.05734252929687,-0.017165871337056,-1.7754408121109,1.87356686592102,0.21041963994503,0.286848157644272,-0.075990155339241,0.06126868724823,2.08227801322937
312,0.25018322467804,-0.363434314727783,1.05633676052094,1.04145431518555,-3.73330545425415,-2.38334679603577,1.87350606918335,0.209792867302895,0.287219852209091,-0.11807819455862,0.090855911374092,2.06082987785339
313,0.214535012841225,-0.241855874657631,0.989981412887573,0.114463202655315,-1.8308539390564,-1.69482100009918,1.87334096431732,0.208308935165405,0.287525951862335,-0.061216801404953,0.139450564980507,2.04075217247009
314,0.047502424567938,-0.008760530501604,1.04465627670288,2.41271066665649,-2.87267684936523,-2.25931024551392,1.87380790710449,0.207560822367668,0.285445779561996,-0.058303005993366,0.127879053354263,2.01938652992249
315,0.186416357755661,-0.265211194753647,1.00471341609955,3.8761420249939,-2.44939684867859,-1.89869153499603,1.87368774414063,0.207343176007271,0.285773426294327,-0.100199714303017,0.165601849555969,2.00092554092407
316,0.211139604449272,-0.141720801591873,1.09962058067322,4.67296743392944,-0.107126370072365,-2.89321255683899,1.87360346317291,0.205690205097198,0.286014765501022,0.010988865047693,0.193828657269478,1.97136580944061
317,0.240236282348633,-0.14763106405735,0.950873255729675,3.63529944419861,1.32535433769226,-3.12318873405457,1.87503099441528,0.204076036810875,0.284523010253906,0.121733985841274,0.04720514267683,1.94181263446808
318,0.02062319777906,-0.126751586794853,1.11773991584778,1.9557808637619,1.13652241230011,-2.44044733047485,1.8750467300415,0.203244313597679,0.284796833992004,0.117674164474011,0.05464643985033,1.91744017601013
319,0.172955378890038,-0.23657576739788,1.01541829109192,1.82116723060608,0.446628123521805,-3.18974947929382,1.87510824203491,0.203213334083557,0.285221785306931,0.03275702893734,0.060648929327726,1.89038789272308
320,0.091518044471741,-0.091495983302593,1.06765604019165,0.135341763496399,-1.52293419837952,-3.72741913795471,1.87436771392822,0.203164845705032,0.285693943500519,-0.055758468806744,0.15714718401432,1.85998356342316
321,0.292354822158813,-0.038089293986559,0.973934352397919,-0.030602864921093,-2.16591024398804,-3.57258605957031,1.87431478500366,0.20185948908329,0.284464567899704,-0.011988736689091,0.181670129299164,1.82303178310394
322,0.1733338534832,-0.5032599568367,0.962143301963806,0.527566850185394,-1.18891859054565,-3.45189738273621,1.87438154220581,0.200424462556839,0.28472962975502,0.033753078430891,0.191254794597626,1.78190922737122
323,0.183488339185715,0.191561549901962,1.27845823764801,0.868364453315735,-2.36178731918335,-4.77072429656982,1.87427031993866,0.199764162302017,0.285178422927856,0.002611695788801,0.222466707229614,1.73279225826263
324,0.511934876441956,0.028178032487631,1.07645082473755,5.40370035171509,-0.232580244541168,-3.94188666343689,1.87432217597961,0.198931440711021,0.283024698495865,0.04159739241004,0.218671768903732,1.69356596469879
325,0.407633572816849,-0.187721058726311,0.972459375858307,3.91256022453308,1.79234552383423,-3.85273385047913,1.87462866306305,0.19806769490242,0.283478677272797,0.077943816781044,0.162802532315254,1.65580308437347
326,0.573528170585632,0.040977969765663,1.0432802438736,6.14216136932373,2.55969095230103,-4.15953207015991,1.87481451034546,0.196958869695663,0.283915728330612,0.157087758183479,0.12150564044714,1.61143517494202
327,0.354642331600189,-0.104936838150024,0.976708054542542,3.79898715019226,0.702290594577789,-4.32372188568115,1.87564265727997,0.195215716958046,0.28655669093132,0.266006708145142,0.035543952137232,1.56520569324493
328,0.253108382225037,0.078224711120129,1.05027496814728,3.31632328033447,-0.829281628131866,-4.9054741859436,1.87573754787445,0.195014670491219,0.287268698215485,0.22671015560627,0.036969255656004,1.52089774608612
329,0.084919534623623,-0.311179280281067,1.00658547878265,0.380113452672958,-0.032378036528826,-4.666823387146,1.87566936016083,0.194981798529625,0.288011699914932,0.151019349694252,0.061784949153662,1.47603952884674
330,0.24463914334774,0.007102566771209,0.94895738363266,-0.511442959308624,-2.7480149269104,-5.10328578948975,1.87546813488007,0.193512693047524,0.28857895731926,0.205639228224754,0.120633512735367,1.42749607563019
331,0.085044384002686,-0.362495630979538,1.00970709323883,-2.39829254150391,-4.41859006881714,-4.83265256881714,1.8752566576004,0.193821787834167,0.285934895277023,0.084567055106163,0.18667434155941,1.38416957855225
332,0.178623244166374,-0.704537451267242,1.07572031021118,-0.468786180019379,-2.28649163246155,-4.61269664764404,1.87499177455902,0.191682383418083,0.286277592182159,0.201479777693748,0.257088661193848,1.33133578300476
333,0.224997386336327,-0.629551768302918,0.997728288173676,-1.04236888885498,-3.03363728523254,-5.16859674453735,1.87468278408051,0.190217092633247,0.286679536104202,0.249926939606667,0.320159077644348,1.2818009853363
334,0.37790259718895,-0.258226275444031,1.03400051593781,-0.388744711875915,0.697385132312775,-3.21973466873169,1.87469470500946,0.190360188484192,0.287725150585175,0.143107384443283,0.316393673419952,1.25128495693207
335,0.248365804553032,-0.123146273195744,1.05177056789398,-0.343487024307251,0.809389472007751,-5.41685009002686,1.87467670440674,0.188096210360527,0.288170099258423,0.263060122728348,0.310042500495911,1.19631242752075
336,0.109425291419029,-0.655329525470733,1.01030814647675,-0.388731420040131,2.90221548080444,-4.20873308181763,1.87480628490448,0.186660155653954,0.288693994283676,0.293897300958633,0.265588194131851,1.14892876148224
337,0.33396977186203,-0.370920985937119,0.964546144008636,-1.62778472900391,4.42098426818848,-4.97293853759766,1.87514340877533,0.186872899532318,0.289300948381424,0.164142370223999,0.19325777888298,1.10443091392517
338,0.370687067508697,-0.386499762535095,1.11313962936401,-2.68681454658508,4.58959436416626,-5.03736543655396,1.87473440170288,0.185566008090973,0.289888739585876,0.172661125659943,0.187113761901856,1.05579435825348
339,0.251555621623993,-0.079320996999741,1.00556743144989,-2.88891530036926,2.25816297531128,-5.05220222473145,1.87503373622894,0.185156211256981,0.290625542402267,0.086446642875671,0.120396621525288,1.00731384754181
340,0.050880692899227,-0.12969334423542,0.9390629529953,-3.97270894050598,2.22909879684448,-5.05927228927612,1.87391364574432,0.183313503861427,0.287804871797562,0.143504470586777,0.208994418382645,0.955593883991241
341,0.069621078670025,-0.203783959150314,1.04569375514984,-3.45924067497253,-0.802574396133423,-5.8766713142395,1.87462472915649,0.182117283344269,0.288243681192398,0.115189962089062,0.130101934075356,0.892840802669525
342,-0.035246197134256,-0.203617036342621,1.06201410293579,-1.81587696075439,-2.88916325569153,-4.83683490753174,1.8746485710144,0.182472333312035,0.288850039243698,-0.033418875187636,0.14065383374691,0.850538015365601
343,0.05227666720748,-0.092791311442852,1.01253700256348,-2.04539799690247,-2.37153673171997,-5.25413656234741,1.87459647655487,0.181153193116188,0.289332658052444,-0.015277142636478,0.158641710877419,0.797399699687958
344,-0.059987183660269,-0.190172135829926,1.21824562549591,0.023294506594539,-4.56903982162476,-5.40025901794434,1.87620425224304,0.178945988416672,0.291140973567963,0.074665993452072,0.053669787943363,0.729665160179138
345,0.159273132681847,-0.016228124499321,1.06057918071747,0.240645557641983,-2.61642527580261,-4.8214373588562,1.87618374824524,0.178247421979904,0.291995167732239,0.046705637127161,0.084611773490906,0.682694137096405
346,0.045583158731461,-0.050412442535162,1.04361724853516,2.08000493049622,-0.203868597745895,-5.37058544158936,1.87543857097626,0.177475020289421,0.292915552854538,0.040426775813103,0.176630526781082,0.631104588508606
347,0.081503413617611,-0.019926507025957,0.993492364883423,0.252022445201874,-3.42802715301514,-5.34920501708984,1.87533032894135,0.176034942269325,0.293123215436935,0.079466596245766,0.210741937160492,0.577642798423767
348,0.219054117798805,-0.504216015338898,1.14939987659454,-0.866725623607636,-2.07317852973938,-6.14082098007202,1.87520253658295,0.175499960780144,0.29409071803093,0.015698790550232,0.24209275841713,0.521557152271271
349,0.106453984975815,-0.331218987703323,1.06067776679993,-0.606850683689117,-1.70168471336365,-5.74897718429565,1.8750866651535,0.175617530941963,0.29520845413208,-0.095258578658104,0.272691339254379,0.472050189971924
350,0.062553405761719,-0.157221049070358,0.984033405780792,-2.32932925224304,-1.3112907409668,-5.40470361709595,1.87495493888855,0.173597127199173,0.292987823486328,-0.003922175150365,0.293363183736801,0.411198168992996
351,0.026126923039556,-0.151782616972923,1.03858637809753,-1.47091996669769,-0.354090690612793,-5.91994571685791,1.8756068944931,0.172926053404808,0.293879002332687,-0.049812681972981,0.238132044672966,0.354882568120956
352,0.01920172944665,-0.183368355035782,1.00142288208008,-3.7587673664093,-0.936826169490814,-4.88238668441772,1.87538135051727,0.170873895287514,0.29466849565506,0.017652066424489,0.276810944080353,0.303738415241241
353,0.174622371792793,-0.496030151844025,1.04320096969605,-3.64637064933777,0.07928416877985,-4.9072642326355,1.8752669095993,0.169628694653511,0.295543760061264,-0.000406164355809,0.299906402826309,0.259842365980148
354,0.211495533585548,-0.467267960309982,1.02033376693726,-6.1947078704834,-1.50179123878479,-6.05519485473633,1.87516629695892,0.170217424631119,0.293218195438385,-0.189802840352058,0.331939995288849,0.20917472243309
355,0.090086430311203,-0.75604248046875,0.952526450157166,-5.66168308258057,-3.63359403610229,-5.30610132217407,1.87492632865906,0.169178545475006,0.293928563594818,-0.236780524253845,0.387059450149536,0.154606252908707
356,0.020739341154695,-0.570177018642426,1.0227290391922,-4.63552618026733,-2.4579074382782,-5.70217323303223,1.87475574016571,0.166329517960548,0.294506937265396,-0.115234799683094,0.416570663452148,0.089165426790714
357,0.09305502474308,-0.125554546713829,0.973998010158539,-2.27930951118469,-3.01630592346191,-5.00789403915405,1.87457513809204,0.165246233344078,0.291572451591492,-0.139346301555634,0.456998974084854,0.03826904669404
358,0.080072812736034,-0.280799210071564,1.04491424560547,-1.18079507350922,-2.84185171127319,-5.85539054870606,1.87534999847412,0.165583461523056,0.292248904705048,-0.272238910198212,0.39258623123169,-0.005114003550261
359,0.162943631410599,-0.224151954054832,0.99730372428894,0.030558463186026,0.929088771343231,-5.92371463775635,1.8754106760025,0.164202362298965,0.292759776115417,-0.245110660791397,0.374318391084671,-0.067121222615242
360,0.041967768222094,-0.181931048631668,0.964936554431915,-1.58529365062714,0.380670875310898,-5.77612543106079,1.87562131881714,0.16450759768486,0.294306606054306,-0.371882408857346,0.339372217655182,-0.112396441400051
361,0.108921229839325,-0.270531803369522,0.959821879863739,-0.469722032546997,3.6510865688324,-5.56186103820801,1.87585425376892,0.163020446896553,0.294830948114395,-0.329937875270843,0.275991290807724,-0.171740993857384
362,0.053908277302981,-0.254764348268509,0.945015370845795,-2.09914112091064,2.7486732006073,-4.81822824478149,1.87610185146332,0.160901144146919,0.295268535614014,-0.257762223482132,0.207252770662308,-0.228314191102982
363,0.178634211421013,-0.415217638015747,1.25101137161255,-1.13921999931335,2.86071968078613,-4.93699359893799,1.87556540966034,0.160395935177803,0.295950055122375,-0.333062350749969,0.232444792985916,-0.277051538228989
364,0.100245580077171,-0.233648747205734,1.09145736694336,1.52311587333679,-0.244499504566193,-4.88870668411255,1.87486803531647,0.158812612295151,0.293508410453796,-0.274316608905792,0.286914497613907,-0.334006458520889
365,0.121653564274311,-0.507866024971008,1.0653463602066,2.31130528450012,-1.28040862083435,-4.24207210540772,1.87480580806732,0.157123908400536,0.294128865003586,-0.19470052421093,0.290355533361435,-0.382828801870346
366,0.059307638555765,-0.089652448892593,0.998991191387176,1.96549212932587,-1.72373604774475,-3.90787076950073,1.87470865249634,0.156335785984993,0.294860243797302,-0.200998589396477,0.309957563877106,-0.419934868812561
367,0.114376433193684,-0.00744006736204,0.999242842197418,1.22568130493164,-3.23047423362732,-4.1505241394043,1.87451159954071,0.156458213925362,0.292908549308777,-0.279410719871521,0.353395819664001,-0.456464439630508
368,0.006274955812842,-0.088147893548012,0.839793980121612,3.00623798370361,-4.67560243606567,-5.18215894699097,1.87466764450073,0.156314626336098,0.293430209159851,-0.317069739103317,0.389567047357559,-0.500478804111481
369,0.336583167314529,-0.474038481712341,0.934795498847961,-1.67933368682861,0.068120665848255,-3.56586861610413,1.87374377250671,0.153129383921623,0.293626874685287,-0.14039520919323,0.451309680938721,-0.559288382530212
370,0.142994418740273,-0.405487805604935,1.0581339597702,-0.338699877262115,2.87960743904114,-3.87998247146606,1.87391400337219,0.153397530317307,0.29442423582077,-0.259656608104706,0.401967346668243,-0.584612131118774
371,0.125490143895149,0.016857527196407,1.04204273223877,-1.87945878505707,3.33080410957336,-3.5388331413269,1.87334942817688,0.152798727154732,0.294825315475464,-0.30816376209259,0.405021071434021,-0.620928287506104
372,0.026326218619943,0.094195023179054,1.06120145320892,-1.09231638908386,5.02447080612183,-3.8495659828186,1.87354838848114,0.150525972247124,0.295174121856689,-0.195768684148788,0.319693624973297,-0.667319715023041
373,0.035278275609017,-0.131880670785904,1.01074051856995,-0.418493360280991,3.93628597259521,-4.19784307479858,1.8730012178421,0.149826034903526,0.295096337795258,-0.228229537606239,0.317573130130768,-0.706899702548981
374,0.052110757678747,-0.237828344106674,0.959179818630218,0.510205924510956,4.59634113311768,-3.65844821929932,1.87327456474304,0.149212241172791,0.295536905527115,-0.252844035625458,0.23555101454258,-0.74030476808548
375,0.032561734318733,-0.059304464608431,0.982437670230866,-0.844826757907867,2.40783286094666,-4.45836210250855,1.87347614765167,0.148622259497643,0.295945644378662,-0.284123927354813,0.178697913885117,-0.775461196899414
376,0.065202578902245,-0.118848957121372,0.994168519973755,0.293041318655014,1.19675517082214,-4.09282922744751,1.8734837770462,0.147934392094612,0.296320617198944,-0.295189708471298,0.163245186209679,-0.817141711711883
377,0.08908212184906,-0.086346477270126,0.792144000530243,0.524344384670258,-1.44895899295807,-5.21721506118774,1.87176144123077,0.146071553230286,0.297464966773987,-0.21834160387516,0.309152334928513,-0.885966718196869
378,0.281247287988663,-0.152361303567886,1.14538860321045,1.36766004562378,-2.53629016876221,-3.76913857460022,1.87247383594513,0.146385714411736,0.297856122255325,-0.316471517086029,0.240506500005722,-0.909261405467987
379,0.294490128755569,0.001100796624087,1.08836960792542,3.18748021125793,-2.51390409469604,-3.78607964515686,1.87219107151032,0.143778577446938,0.298106044530869,-0.134418696165085,0.266510635614395,-0.953597962856293
380,0.147949352860451,0.038549911230803,0.963813126087189,2.25349259376526,-1.48674309253693,-3.24977016448975,1.87210047245026,0.143868029117584,0.295201033353806,-0.201989859342575,0.279604196548462,-0.980943500995636
381,0.17387367784977,-0.096037603914738,0.99272495508194,2.4284200668335,-0.058072801679373,-3.07311320304871,1.87127840518951,0.142898634076119,0.295347422361374,-0.179426237940788,0.337630450725555,-1.01676464080811
382,0.126262381672859,-0.238872677087784,0.967590093612671,2.39652132987976,0.999663054943085,-2.85484433174133,1.8720623254776,0.141328617930412,0.295445412397385,-0.087180577218533,0.230244219303131,-1.04312920570374
383,0.115583121776581,0.04007525369525,1.04391443729401,1.20941293239594,2.45022201538086,-2.76501846313477,1.87070071697235,0.141244783997536,0.294746607542038,-0.163206800818443,0.320009022951126,-1.0730607509613
384,0.033257570117712,0.019078513607383,1.05994057655334,-0.669225633144379,3.02063965797424,-2.51945924758911,1.87090981006622,0.140572980046272,0.294876337051392,-0.176971897482872,0.243000701069832,-1.09304189682007
385,-0.02918291836977,-0.107589587569237,1.00872242450714,-0.763630211353302,2.75291895866394,-2.16354060173035,1.87120521068573,0.140029609203339,0.295048743486404,-0.214427798986435,0.160216972231865,-1.10782861709595
386,0.104984737932682,-0.327090919017792,1.02175402641296,-1.2430248260498,2.47154521942139,-2.18316435813904,1.86970388889313,0.137638971209526,0.295080780982971,-0.094233170151711,0.245787143707275,-1.14477705955505
387,0.162833511829376,-0.230399772524834,0.990862846374512,0.392347455024719,1.90609204769135,-2.39926624298096,1.86919736862183,0.137725621461868,0.296352624893188,-0.188938036561012,0.238634392619133,-1.16140413284302
388,0.119721509516239,-0.046929392963648,1.05495345592499,0.912604987621307,1.68382799625397,-2.17229294776916,1.86936247348785,0.136938035488129,0.296612977981567,-0.177998349070549,0.168545141816139,-1.17945373058319
389,0.329266250133514,-0.129693165421486,1.08152997493744,2.7383770942688,2.13065958023071,-0.951281249523163,1.86948978900909,0.134564831852913,0.29679462313652,-0.018752882257104,0.101349137723446,-1.19737827777863
390,0.112348258495331,-0.476507097482681,1.02134311199188,0.946403443813324,0.726859748363495,-1.94724130630493,1.86968469619751,0.134605124592781,0.296951353549957,-0.1006243750453,0.047247216105461,-1.20983290672302
391,0.023125786334276,-0.596150875091553,1.13993537425995,1.69761037826538,2.45420002937317,-1.45634329319,1.8688200712204,0.133900791406632,0.297372817993164,-0.119008995592594,0.111190773546696,-1.2310962677002
392,0.081898778676987,-0.154637932777405,1.01399385929108,1.89564144611359,2.4273784160614,-1.24342715740204,1.86910653114319,0.133049562573433,0.297874540090561,-0.097734563052654,0.024047713726759,-1.24106705188751
393,0.151444762945175,-0.099403269588947,1.01380574703217,2.3540415763855,4.23273992538452,-0.412864804267883,1.86935484409332,0.133037239313126,0.297956734895706,-0.161263272166252,-0.054845314472914,-1.24743115901947
394,0.077167794108391,-0.3520388007164,1.06995260715485,1.36488175392151,3.33890628814697,-1.51248776912689,1.86882781982422,0.131387457251549,0.298445641994476,-0.059034056961537,-0.06113825365901,-1.26026344299316
395,0.010329823940992,-0.152102023363113,1.26745736598969,-0.346987545490265,1.24659669399261,-1.22478497028351,1.86888325214386,0.130045086145401,0.299089819192886,-0.016815114766359,-0.102040737867355,-1.26571106910706
396,0.173407152295113,-0.417603671550751,1.03213000297546,2.02604818344116,-0.309652924537659,-1.6161767244339,1.86895453929901,0.12988269329071,0.299999594688415,-0.075488083064556,-0.133903175592422,-1.28183174133301
397,0.152587726712227,-0.129039794206619,1.03207612037659,2.39523458480835,-0.384787946939468,-2.04779362678528,1.86658048629761,0.1296526491642,0.302373498678207,-0.129403650760651,0.08935721963644,-1.31124842166901
398,0.08656308054924,-0.195782735943794,1.04985857009888,2.04791355133057,-1.41391181945801,-2.44180512428284,1.86651206016541,0.128766670823097,0.303371608257294,-0.092574700713158,0.066570296883583,-1.33320248126984
399,0.042095594108105,-0.086755767464638,1.01048064231873,2.81468534469604,-0.468188971281052,-1.49334895610809,1.86718535423279,0.126506701111794,0.304316163063049,0.096749506890774,-0.032649375498295,-1.34147548675537
400,0.003136071143672,0.017667574808002,1.01140606403351,1.75071835517883,-1.14405500888824,-2.07162547111511,1.86634492874146,0.126284196972847,0.306355088949203,0.036745384335518,0.030977440997958,-1.3645144701004
401,0.043543506413698,-0.185998767614365,1.11858725547791,1.98886322975159,2.81624817848206,-0.88959139585495,1.86656188964844,0.125448971986771,0.307523846626282,0.052889034152031,-0.04662623628974,-1.37606799602509
402,0.107428453862667,-0.092967830598354,1.00874269008636,1.1967796087265,-2.01145482063293,-2.63297700881958,1.86719298362732,0.124564826488495,0.308752775192261,0.071559935808182,-0.122940048575401,-1.40174198150635
403,0.238508105278015,-0.104968391358852,0.987653374671936,-0.725932061672211,-2.13498258590698,-2.30157423019409,1.86702847480774,0.123212292790413,0.308198779821396,0.126563623547554,-0.102041527628899,-1.42311108112335
404,0.198898792266846,-0.065641425549984,0.909505605697632,-1.92811501026154,-3.72677183151245,-2.99072003364563,1.86681032180786,0.122533418238163,0.309292197227478,0.082925766706467,-0.068167515099049,-1.45282816886902
405,0.102729089558125,-0.073323868215084,1.16739296913147,-4.06642723083496,-6.27444648742676,-2.62285709381104,1.86625444889069,0.122777283191681,0.310496300458908,-0.089921973645687,0.037903390824795,-1.48448932170868
406,0.255980163812637,-0.002858732128516,0.993240058422089,-3.57275485992432,-2.06246733665466,-2.03180146217346,1.86466503143311,0.122995018959045,0.310129106044769,-0.223421782255173,0.194770440459251,-1.51123130321503
407,0.063780255615711,0.055962521582842,0.968291282653809,-1.74729001522064,-0.582194566726685,-2.55234861373901,1.86543691158295,0.122420869767666,0.311242669820785,-0.260499358177185,0.07344738394022,-1.53669512271881
408,-0.038511529564858,-0.195906773209572,0.958437085151672,-0.492029815912247,3.48560404777527,-2.47887945175171,1.86573123931885,0.118920639157295,0.312200248241425,0.049240555614233,-0.012328829616308,-1.54600417613983
409,0.10560891777277,-0.213479474186897,0.989818394184112,1.93156683444977,2.74477791786194,-2.6399085521698,1.864466547966,0.118806071579456,0.313290238380432,-0.022428059950471,0.058964665979147,-1.57588410377502
410,0.147105321288109,-0.269781649112701,0.916025519371033,1.74658668041229,4.0342583656311,-2.66286635398865,1.86481261253357,0.117995694279671,0.310070246458054,-0.008828703314066,-0.043441813439131,-1.60346734523773
411,0.044969260692597,-0.100291535258293,0.948533952236176,-0.197667762637138,3.65679526329041,-2.80697202682495,1.8643571138382,0.117978326976299,0.310791313648224,-0.098602272570133,-0.0594820715487,-1.6369936466217
412,-0.006441749632359,-0.076457142829895,0.96599942445755,0.428835391998291,4.46680402755737,-3.10932540893555,1.86459946632385,0.11719636619091,0.311409711837769,-0.09811519831419,-0.149366825819016,-1.66532576084137
413,0.117123886942863,-0.395413905382156,0.907910346984863,-2.64126944541931,4.29037094116211,-2.54004406929016,1.86484515666962,0.115843199193478,0.31012088060379,-0.049252353608608,-0.2264034897089,-1.68622303009033
414,0.025964358821511,-0.383662343025208,0.971839725971222,-0.525276720523834,3.51286578178406,-2.81489658355713,1.86421453952789,0.115831598639488,0.310577005147934,-0.144762918353081,-0.207255303859711,-1.71864235401154
415,0.074712462723255,-0.445972919464111,0.987106919288635,-1.60315525531769,2.29707598686218,-2.10155558586121,1.86345601081848,0.115144968032837,0.310942858457565,-0.158087208867073,-0.159655585885048,-1.74201834201813
416,0.079710282385349,-0.340759217739105,0.963853240013123,1.36923146247864,-0.506074786186218,-2.60143065452576,1.86181271076202,0.113701447844505,0.307755589485168,-0.05932329967618,-0.013230856508017,-1.75927770137787
417,-0.006808998528868,-0.416471421718597,0.999187111854553,1.26639842987061,-1.25196599960327,-2.73555898666382,1.86158680915833,0.113578744232655,0.307910621166229,-0.128688469529152,-0.013103611767292,-1.79082429409027
418,0.127758592367172,-0.147400796413422,1.00449204444885,2.81155920028687,-0.623485147953033,-2.45669937133789,1.86153209209442,0.111927732825279,0.307965457439423,0.00230248994194,-0.034301690757275,-1.80641543865204
419,0.115509875118732,0.027180504053831,0.975750863552094,3.29805040359497,0.625789284706116,-1.94145023822784,1.86147916316986,0.111694633960724,0.308128625154495,-0.031773205846548,-0.068440496921539,-1.82970452308655
420,0.025625953450799,-0.070350207388401,0.961174964904785,3.06151914596558,2.46443796157837,-1.08897352218628,1.86163055896759,0.110017068684101,0.30708384513855,0.103971064090729,-0.13011460006237,-1.83514261245728
421,0.052308581769466,0.031706679612398,0.974950313568115,2.15053820610046,2.62651181221008,-1.90615367889404,1.86172151565552,0.109127275645733,0.307082831859589,0.127648338675499,-0.187898531556129,-1.85236513614655
422,0.01125258859247,-0.24376355111599,0.950393199920654,3.04131317138672,2.48551416397095,-1.72986400127411,1.86108958721161,0.108169473707676,0.307038396596909,0.166912034153938,-0.170928567647934,-1.86855733394623
423,0.033123787492514,-0.144456595182419,0.981342911720276,0.551173865795136,2.19526696205139,-1.42317605018616,1.86117136478424,0.107396945357323,0.306314080953598,0.156810447573662,-0.228861376643181,-1.88234543800354
424,0.005746860522777,-0.246419012546539,0.998082339763641,0.586396396160126,3.58617424964905,-1.02800464630127,1.86059081554413,0.105909518897533,0.306151956319809,0.231201753020287,-0.220098182559013,-1.8860057592392
425,0.045869708061218,-0.084887973964214,0.960827529430389,-0.787767052650452,1.13287401199341,-1.23632144927979,1.85977137088776,0.106624811887741,0.306233137845993,0.040882557630539,-0.182103306055069,-1.91095900535584
426,0.025984056293964,-0.019278146326542,1.04360353946686,-1.73669350147247,1.32004964351654,-0.699537992477417,1.85983991622925,0.105304136872292,0.304043292999268,0.088923066854477,-0.225792616605759,-1.91400587558746
427,0.122944124042988,-0.579475820064545,1.02875208854675,-0.42026361823082,1.18975162506104,-0.92461758852005,1.85903656482697,0.104648880660534,0.303854525089264,0.069320254027844,-0.180956602096558,-1.92021381855011
428,0.134247466921806,-0.395007133483887,1.06974136829376,0.984630525112152,1.6950591802597,-0.719590663909912,1.85915219783783,0.103129118680954,0.303661733865738,0.153893902897835,-0.231726378202438,-1.92065823078156
429,0.169558197259903,0.108373627066612,1.02689909934998,2.29974937438965,1.86176812648773,-0.582868993282318,1.85918295383453,0.102903053164482,0.303650736808777,0.095026947557926,-0.280001282691956,-1.93410706520081
430,0.11183089017868,-0.584561407566071,1.01843750476837,3.3331561088562,1.72258365154266,0.120320938527584,1.85933327674866,0.101303972303867,0.301936745643616,0.211831599473953,-0.329741239547729,-1.92460286617279
431,0.081181526184082,-0.816664397716522,1.01791679859161,3.81685304641724,2.40241289138794,0.447392821311951,1.86021864414215,0.100884519517422,0.301861494779587,0.174452900886536,-0.461606413125992,-1.93354427814484
432,0.070551663637161,-0.44539874792099,0.978332996368408,2.79664516448975,1.54370748996735,0.916314244270325,1.85884988307953,0.099469885230064,0.301676720380783,0.288309752941132,-0.345523357391357,-1.90673816204071
433,0.01660205796361,-0.285917907953262,1.03835356235504,3.6756477355957,1.04040718078613,1.48796224594116,1.85889720916748,0.09915591031313,0.302047520875931,0.23985630273819,-0.391561418771744,-1.90596914291382
434,0.037958066910505,-0.017453957349062,1.10573208332062,1.09759962558746,1.63886523246765,0.796273052692413,1.85902857780457,0.09821654856205,0.302004724740982,0.263821750879288,-0.438185334205627,-1.89845478534699
435,0.064907021820545,0.002046550856903,1.03169560432434,1.85906064510345,2.72036981582642,2.5935206413269,1.85910975933075,0.097955718636513,0.302105247974396,0.198846146464348,-0.491530954837799,-1.89019989967346
436,-0.002153268316761,-0.049595911055803,0.981454432010651,0.970531284809112,1.25444078445435,2.07575798034668,1.85861778259277,0.095967404544354,0.303351253271103,0.362262368202209,-0.46146622300148,-1.84182679653168
437,0.081453248858452,-0.038786768913269,0.960432589054108,1.47239196300507,2.61626148223877,3.07995963096619,1.85797524452209,0.094578243792057,0.303372234106064,0.439561814069748,-0.421943575143814,-1.79908215999603
438,0.12495332211256,-0.251945465803146,1.04064416885376,2.47109127044678,-0.647489666938782,1.98733222484589,1.85781943798065,0.094787441194058,0.303653955459595,0.307437509298325,-0.441477715969086,-1.80484879016876
439,0.115480311214924,-0.276733487844467,1.08051407337189,1.40987598896027,1.49940872192383,2.80397510528564,1.85787427425385,0.093339927494526,0.303739637136459,0.391811937093735,-0.465013295412064,-1.76893186569214
440,0.191122785210609,-0.259820610284805,1.01366364955902,0.95384693145752,1.59722530841827,2.65345335006714,1.85793077945709,0.092446692287922,0.303340882062912,0.393616288900375,-0.501806616783142,-1.74323344230652
441,0.195873826742172,-0.088148064911366,0.995826482772827,1.28379964828491,2.3635835647583,4.14091920852661,1.85729551315308,0.092251136898995,0.303597748279572,0.321988344192505,-0.475616574287415,-1.71459186077118
442,0.089131094515324,-0.155711144208908,0.996503591537476,0.409811139106751,2.71325445175171,3.97536826133728,1.8574777841568,0.090815208852291,0.303710728883743,0.392102986574173,-0.526329219341278,-1.66603827476501
443,0.190539196133614,0.021879114210606,0.986704170703888,-0.786568522453308,0.820596396923065,3.1659779548645,1.85752010345459,0.08954518288374,0.301246970891953,0.436598092317581,-0.546798467636108,-1.62788808345795
444,0.368766367435455,0.089004501700401,1.0540235042572,1.4462069272995,-0.34722962975502,3.01896715164185,1.85663747787476,0.089959993958473,0.301448583602905,0.280419051647186,-0.477417647838593,-1.62286162376404
445,0.151616185903549,-0.104736022651196,1.08576953411102,-0.00297658611089,-0.743479788303375,2.98447728157043,1.85583138465881,0.089349307119846,0.30154424905777,0.276197046041489,-0.40229994058609,-1.58742225170136
446,0.216006964445114,-0.549764335155487,0.948756098747253,2.50304365158081,0.832985639572144,3.47571063041687,1.85737502574921,0.087105207145214,0.298458367586136,0.44435465335846,-0.574734568595886,-1.54774641990662
447,0.100771896541119,-0.3637535572052,0.986526906490326,2.97837376594543,0.394144475460052,2.53841376304626,1.85819971561432,0.085398301482201,0.298279255628586,0.54480254650116,-0.665567874908447,-1.5191912651062
448,0.2224180996418,-0.217470183968544,1.30911946296692,2.12983727455139,0.216339215636253,2.31597447395325,1.8564772605896,0.085601918399334,0.298534154891968,0.437204211950302,-0.478169143199921,-1.49967813491821
449,0.117241203784943,-0.156209290027618,1.11935091018677,0.678642213344574,0.112636432051659,2.48198485374451,1.85653626918793,0.084686398506165,0.299185395240784,0.434701830148697,-0.507339537143707,-1.47913348674774
450,-0.00990841537714,-0.513515651226044,1.05210244655609,-0.215255677700043,1.34420323371887,3.05141019821167,1.85736429691315,0.083141438663006,0.299494475126266,0.481283605098724,-0.606750190258026,-1.45558738708496
451,0.13183020055294,-0.373879164457321,1.00112497806549,-1.33001112937927,-0.726802170276642,2.28811120986938,1.85728013515472,0.082918025553227,0.299996107816696,0.362051993608475,-0.607688724994659,-1.45518338680267
452,0.563899576663971,-0.444827884435654,0.976459562778473,-1.27579426765442,-0.605666399002075,1.60540819168091,1.85656630992889,0.081904076039791,0.300367087125778,0.394386440515518,-0.512323379516602,-1.41458785533905
453,0.481101274490356,-0.581175267696381,1.0075831413269,-1.1036673784256,-2.78320693969727,2.02476096153259,1.85656476020813,0.080223105847836,0.296100527048111,0.495340347290039,-0.480243444442749,-1.36762094497681
454,0.38200306892395,-0.57739531993866,1.09472370147705,-1.23400044441223,-3.74393606185913,1.35028541088104,1.8569575548172,0.078819066286087,0.296241521835327,0.515634119510651,-0.478638082742691,-1.35456502437592
455,0.143885090947151,-0.482435286045074,1.05275118350983,-0.005751037970185,-5.08253765106201,0.677492916584015,1.85717749595642,0.078436262905598,0.296641916036606,0.401580393314362,-0.461972504854202,-1.37797367572784
456,0.205918207764626,-0.020447719842196,1.00671315193176,-2.07808828353882,-3.61143064498901,0.100436396896839,1.85749471187592,0.077537387609482,0.299062162637711,0.352929443120956,-0.447173833847046,-1.38852727413178
457,0.216205656528473,-0.14862571656704,1.04780638217926,-0.894100308418274,-2.14969754219055,2.66823148727417,1.857417345047,0.076297722756863,0.299444317817688,0.383650809526443,-0.397162348031998,-1.3550431728363
458,0.034991763532162,-0.403982132673264,1.02866232395172,-1.25353419780731,-2.49390149116516,1.53360056877136,1.85714888572693,0.075609102845192,0.29993262887001,0.341085374355316,-0.335126847028732,-1.339919090271
459,0.110217034816742,-0.727684319019318,1.06029891967773,-0.25882813334465,-3.99746155738831,0.675842940807343,1.85712647438049,0.072714783251286,0.300085365772247,0.586051821708679,-0.25516813993454,-1.27925515174866
460,-0.027420304715633,-0.646923243999481,1.04612171649933,-1.74846649169922,-4.67180728912354,0.043434478342533,1.85799217224121,0.072171546518803,0.300807267427444,0.448501944541931,-0.311069995164871,-1.31730675697327
461,0.20504367351532,-0.349195301532745,1.03373908996582,-2.01078271865845,-2.48956632614136,1.01880264282227,1.85773229598999,0.071528628468514,0.301468938589096,0.376091241836548,-0.243986263871193,-1.31215262413025
462,0.094603464007378,-0.109585992991924,1.02733743190765,-3.69120693206787,-3.09641695022583,1.17190253734589,1.8574880361557,0.070347651839256,0.302069574594498,0.362129420042038,-0.173545658588409,-1.29094362258911
463,0.049381956458092,-0.0050114011392,0.932875335216522,-4.40649747848511,-3.8319456577301,1.47100651264191,1.85724675655365,0.069198645651341,0.305053174495697,0.319113731384277,-0.102028757333756,-1.27459812164307
464,0.071912348270416,0.065229386091232,1.01717710494995,-3.52490091323853,-2.26276397705078,0.736781477928162,1.8591001033783,0.067498229444027,0.305767714977264,0.287124127149582,-0.261134058237076,-1.29389560222626
465,0.056252598762512,-0.079245664179325,0.977730572223663,-5.52788782119751,-1.87679207324982,1.46917760372162,1.85825395584106,0.066605307161808,0.306495308876038,0.237843230366707,-0.129374668002129,-1.2641521692276
466,0.113291546702385,-0.264670521020889,1.07452118396759,-4.5771689414978,-2.71071887016296,1.25456726551056,1.85736918449402,0.065727658569813,0.304654270410538,0.195277035236359,-0.004254631698132,-1.23669123649597
467,0.04021031409502,-0.216624677181244,0.997886598110199,-4.01774311065674,-4.82317495346069,1.31132686138153,1.85911500453949,0.064136140048504,0.305255472660065,0.162184119224548,-0.129264950752258,-1.24938142299652
468,0.081807367503643,0.082138873636723,1.01045942306519,-1.32816302776337,-3.56204223632812,1.2166827917099,1.85674929618835,0.063262209296227,0.305865079164505,0.167033582925797,0.164059922099113,-1.20220494270325
469,0.07705819606781,-0.328821241855621,1.00065684318542,-4.34583377838135,-3.21603012084961,1.81643962860107,1.8578222990036,0.061821531504393,0.304601579904556,0.140388160943985,0.084142662584782,-1.19890832901001
470,0.065450169146061,-0.166913390159607,0.985083699226379,-2.66605114936829,-2.01212954521179,1.40957057476044,1.85837256908417,0.061136610805988,0.305107474327087,0.051742561161518,0.054666474461556,-1.19222545623779
471,0.067432411015034,-0.104552134871483,0.997636377811432,-3.3396942615509,-0.946131527423858,1.76507413387299,1.85821163654327,0.059880033135414,0.305516183376312,0.033915884792805,0.091104403138161,-1.17281746864319
472,0.020285628736019,-0.058007717132568,0.975156188011169,-2.55963015556335,-0.867307066917419,1.4917129278183,1.85809791088104,0.059423759579659,0.303335726261139,-0.051145661622286,0.118267096579075,-1.15648603439331
473,0.140849500894547,0.011722675524652,0.964952528476715,-2.83580422401428,-2.04560852050781,1.19786369800568,1.85786402225494,0.058131568133831,0.303527981042862,-0.059400856494904,0.164411917328835,-1.14349830150604
474,0.051045034080744,-0.126073986291885,0.954594671726227,-2.67869400978088,-0.898711621761322,0.878348588943481,1.85772109031677,0.05603713169694,0.303615063428879,-0.001263739075512,0.188249677419663,-1.13516283035278
475,0.021404702216387,-0.186722785234451,0.754751443862915,-1.65566945075989,-0.190316423773766,1.2061755657196,1.85854244232178,0.055380694568157,0.303738445043564,-0.064772188663483,0.110208861529827,-1.1265527009964
476,0.342513293027878,-0.481171011924744,0.914066910743713,-1.24657762050629,-0.568690776824951,1.26163125038147,1.85913264751434,0.053941566497088,0.302325427532196,-0.055849090218544,0.074323855340481,-1.11473202705383
477,0.176548704504967,-0.202571958303452,0.98134046792984,-2.8081259727478,-2.47261023521423,1.68552577495575,1.85890400409699,0.052657533437014,0.302088350057602,-0.071462728083134,0.130675375461578,-1.09773659706116
478,0.025716345757246,-0.269934713840485,1.02262043952942,-1.43481373786926,-1.58547866344452,2.46831512451172,1.85862934589386,0.050445768982172,0.301752775907516,-0.003705526236445,0.183574870228767,-1.0784637928009
479,0.004129808396101,-0.17307049036026,1.00749945640564,-2.90219306945801,-2.11526775360107,2.08662056922913,1.8584965467453,0.050834644585848,0.302192866802216,-0.172510430216789,0.229792416095734,-1.04560196399689
480,0.194709211587906,-0.069966912269592,1.03165984153748,-1.55134344100952,-0.529398620128632,2.58318042755127,1.85758829116821,0.049454387277365,0.302006661891937,-0.172879546880722,0.321306854486465,-1.02262997627258
481,0.115691639482975,-0.050703760236502,1.28861331939697,-3.90972232818604,-0.622514486312866,3.20013308525085,1.85740160942078,0.04747287184,0.3018998503685,-0.142270714044571,0.329707413911819,-0.995119988918304
482,0.241439029574394,-0.005564510822296,1.06861805915833,-1.74110007286072,3.49954771995544,3.80475544929504,1.85754036903381,0.046959914267063,0.302733391523361,-0.21758009493351,0.289553642272949,-0.952261805534363
483,0.154052436351776,0.073834270238876,1.03146255016327,-0.008300429210067,3.41795134544373,3.50122904777527,1.85779762268066,0.045453853905201,0.302935123443604,-0.192666918039322,0.21642555296421,-0.917652726173401
484,-0.076220370829105,-0.047569762915373,1.07970666885376,2.56421446800232,5.92363166809082,3.99042439460754,1.85806691646576,0.043790861964226,0.303155958652496,-0.134247153997421,0.134355574846268,-0.88443922996521
485,0.068795837461948,-0.374523848295212,1.04797351360321,1.80559802055359,4.17856407165527,3.80387234687805,1.85855150222778,0.043959349393845,0.303605496883392,-0.229033708572388,0.052931860089302,-0.829572916030884
486,0.07161571085453,-0.230897530913353,0.950374126434326,-0.383083462715149,3.36699271202087,3.51016306877136,1.85788071155548,0.042442038655281,0.30196151137352,-0.19555926322937,0.077254496514797,-0.804481625556946
487,0.034259989857674,-0.263883829116821,0.995401203632355,1.41696047782898,2.35458183288574,4.12029409408569,1.85794699192047,0.039072275161743,0.301950752735138,-0.008603436872363,0.025385439395905,-0.784330368041992
488,0.080008961260319,-0.137261539697647,1.05739057064056,-0.804547071456909,0.47100904583931,4.17419195175171,1.85795164108276,0.037575874477625,0.30210092663765,0.007378980051726,0.013689638115466,-0.743690311908722
489,0.017918204888702,-0.051169324666262,0.984011948108673,0.172280475497246,-0.072385162115097,4.22029113769531,1.85729169845581,0.037838213145733,0.301764100790024,-0.128055840730667,0.078765980899334,-0.69093930721283
490,0.165330216288567,-0.028159251436591,1.2523295879364,-3.53642320632935,-3.86387777328491,5.1363468170166,1.85697114467621,0.036623857915402,0.302036881446838,-0.160858392715454,0.128884360194206,-0.638520538806915
491,-0.032302182167769,-0.239436000585556,1.0618462562561,-1.86470317840576,-0.75167590379715,3.66630911827087,1.85679578781128,0.034409753978253,0.302353382110596,-0.10178217291832,0.138383612036705,-0.609465897083283
492,0.104306198656559,0.016132483258844,1.02555739879608,-1.65005946159363,-1.07857131958008,3.39709281921387,1.85696661472321,0.034841407090426,0.302684545516968,-0.258211761713028,0.123319528996944,-0.56026417016983
493,-0.002356622833759,-0.016493458300829,1.02273166179657,-0.89113038778305,3.48173093795776,3.35711979866028,1.85713052749634,0.033445466309786,0.303152620792389,-0.245894402265549,0.06984806060791,-0.529359698295593
494,0.051517751067877,0.024779081344605,0.954912722110748,-0.538366496562958,2.12380981445312,3.27193808555603,1.85734641551971,0.031977199018002,0.303600162267685,-0.225493907928467,0.012665518559516,-0.496171534061432
495,0.063676200807095,-0.117909826338291,0.934365153312683,-1.24758970737457,3.63167786598206,3.35693526268005,1.85752391815186,0.030559306964278,0.303992062807083,-0.211511269211769,-0.042978119105101,-0.46355339884758
496,0.082217827439308,-0.037977494299412,1.02628314495087,-1.0726410150528,3.59381628036499,3.67662835121155,1.8554140329361,0.030565392225981,0.304162979125977,-0.346103429794311,0.110870912671089,-0.433454066514969
497,0.173207864165306,-0.112139485776424,1.0307639837265,-0.909469902515411,2.35468816757202,3.72784996032715,1.8571765422821,0.028523495420814,0.304527908563614,-0.24974299967289,-0.096588551998139,-0.387128293514252
498,0.22971898317337,-0.179337903857231,0.999971926212311,1.25296437740326,2.91157293319702,2.49943161010742,1.85655689239502,0.027666822075844,0.304972678422928,-0.278356283903122,-0.068864487111569,-0.361428111791611
499,-0.001000101095997,-0.061649065464735,0.973493278026581,-0.395372688770294,0.130824327468872,2.55791902542114,1.8567214012146,0.02806375734508,0.300619006156921,-0.399540036916733,-0.091614693403244,-0.326739639043808
500,0.162836521863937,0.024717058986425,0.930985927581787,0.756066977977753,1.47764480113983,2.06429386138916,1.85575604438782,0.024637315422297,0.300545662641525,-0.19503803551197,-0.030572328716517,-0.328304976224899
501,-0.009598491713405,-0.10773790627718,0.990943014621735,1.56043708324432,0.123467095196247,2.31080722808838,1.85570526123047,0.022983258590102,0.300497442483902,-0.138350084424019,-0.041462127119303,-0.305034309625626
502,0.022739505395293,0.014720157720149,1.03201913833618,1.7240754365921,0.037444803863764,1.82878232002258,1.8548595905304,0.022970888763666,0.299397319555283,-0.232281938195229,0.029501385986805,-0.289623886346817
503,0.161471992731094,-0.041345968842507,0.979345202445984,1.44665682315826,1.72934353351593,2.00612783432007,1.85485017299652,0.02132953889668,0.299320161342621,-0.168073117733002,0.004040871746838,-0.268810778856277
504,0.291613936424255,0.042292024940252,0.994245946407318,-0.396363824605942,3.44089889526367,2.58700919151306,1.85504615306854,0.020737715065479,0.299343377351761,-0.21095634996891,-0.054166976362467,-0.237869828939438
505,0.034517806023359,-0.079289674758911,0.926414012908936,-0.517086744308472,4.76107692718506,1.33638465404511,1.85532605648041,0.018436875194311,0.300445914268494,-0.107622876763344,-0.133710414171219,-0.221444860100746
506,0.359788209199905,0.205468371510506,0.767342388629913,-1.43413925170898,5.99601221084595,0.561050713062286,1.85559344291687,0.017028661444783,0.300286322832108,-0.092133462429047,-0.210525035858154,-0.216784060001373
507,0.16297972202301,-0.01744799874723,0.985008299350738,0.411630213260651,6.83917379379272,1.00862121582031,1.85618555545807,0.017209956422448,0.300175338983536,-0.211131036281586,-0.330513685941696,-0.19600810110569
508,0.14744932949543,0.105917207896709,1.00288057327271,-0.733045220375061,6.21576833724976,1.66480624675751,1.85483002662659,0.015505964867771,0.299888849258423,-0.174529194831848,-0.269087046384811,-0.193988963961601
509,0.046936757862568,-0.241250157356262,0.935697436332702,-0.685216963291168,3.94014263153076,1.20514857769012,1.85513687133789,0.014140114188194,0.299934804439545,-0.156938523054123,-0.347321659326553,-0.178093418478966
510,0.163845255970955,-0.12018059939146,1.02165281772614,1.90632617473602,1.70928764343262,0.545497298240662,1.85528016090393,0.011771499179304,0.299473404884338,-0.025717630982399,-0.384685426950455,-0.165191769599915
511,0.053234327584505,-0.21459011733532,1.09976732730865,2.72223997116089,0.710989832878113,1.04775905609131,1.85443139076233,0.010788729414344,0.299261271953583,-0.040916543453932,-0.316338539123535,-0.165531724691391
512,0.089679516851902,-0.166832461953163,0.972277581691742,2.07812452316284,-0.646545588970184,0.775201976299286,1.85438144207001,0.009830456227064,0.301051676273346,-0.052045401185751,-0.31555250287056,-0.155218318104744
513,0.156300395727158,-0.122832253575325,0.971872985363007,0.166903585195541,-0.23250088095665,2.2109055519104,1.85426664352417,0.008286209776998,0.300875216722488,-0.010591506026685,-0.306195437908173,-0.134547024965286
514,0.021100593730807,-0.407752692699432,1.07084703445435,1.14207577705383,0.26809561252594,1.46091663837433,1.85347664356232,0.008132448419929,0.300923049449921,-0.121945150196552,-0.248619705438614,-0.128232002258301
515,0.309995740652084,-0.19755594432354,1.05166590213776,-1.05711376667023,0.96279913187027,0.107460081577301,1.85260903835297,0.006611365359277,0.300526082515717,-0.093913331627846,-0.185990571975708,-0.125693023204803
516,0.359416157007217,0.072163380682469,0.970050811767578,-0.549488663673401,2.13368511199951,1.42169177532196,1.85355913639069,0.005353148560971,0.30048331618309,-0.082406535744667,-0.312124848365784,-0.106959663331509
517,0.290800005197525,-0.363169491291046,1.07131063938141,-1.16572165489197,4.01625776290894,0.876639902591705,1.8537837266922,0.003957916051149,0.300418525934219,-0.068938113749027,-0.374537020921707,-0.091679289937019
518,0.086668960750103,-0.34705263376236,1.04613840579987,-1.38275754451752,2.57639312744141,0.672040045261383,1.85400545597076,0.002636569552124,0.300413399934769,-0.067512325942516,-0.432191908359528,-0.082998760044575
519,0.181854024529457,-0.064295001327992,0.969972670078278,-0.696609914302826,1.81991958618164,-0.237512305378914,1.85246300697327,0.002437429735437,0.30117478966713,-0.195662990212441,-0.317485272884369,-0.098280556499958
520,0.068275772035122,-0.107592925429344,1.03080546855927,-0.337433844804764,-0.333936721086502,0.589579105377197,1.85255897045136,0.001063744653948,0.301215052604675,-0.167845651507378,-0.350022554397583,-0.087752364575863
521,-0.059652529656887,0.04467511549592,1.15190863609314,-0.002117734635249,0.692697465419769,1.5349782705307,1.85419380664825,-0.00158421730157,0.301148921251297,0.013501570560038,-0.5057412981987,-0.051611639559269
522,0.240328714251518,-0.013018304482102,1.05072927474976,3.14175510406494,-2.03466176986694,1.13485085964203,1.85410392284393,-0.002580763073638,0.302049160003662,-0.001491569681093,-0.487151741981506,-0.043600741773844
523,0.298380881547928,-0.623419165611267,1.19965219497681,-0.947462141513824,-4.34698677062988,-0.412575662136078,1.85196542739868,-0.002670367946848,0.302631348371506,-0.151529118418694,-0.256674736738205,-0.066244430840015
524,0.139447301626205,-0.403911888599396,1.15284633636475,2.5407829284668,-0.201254978775978,0.919450640678406,1.85117709636688,-0.00430522672832,0.303056806325912,-0.07340270280838,-0.186139240860939,-0.058072127401829
525,-0.005096253473312,-0.140743032097817,1.07996535301209,3.62702965736389,-0.528405606746674,0.429487079381943,1.85122108459473,-0.005866578780115,0.30123582482338,0.016891106963158,-0.21197098493576,-0.04453944042325
526,-0.016113137826324,-0.009690248407424,0.981961488723755,3.56834578514099,2.47524571418762,0.316967397928238,1.85124814510345,-0.006174022331834,0.301848858594894,-0.049081221222878,-0.254313319921494,-0.048695255070925
527,0.119551941752434,-0.03324780240655,1.00986588001251,0.593827247619629,0.990091741085052,-1.09169292449951,1.85064911842346,-0.008359685540199,0.302206367254257,0.071502804756165,-0.224126875400543,-0.050066974014044
528,0.122504413127899,-0.3507399559021,0.980868399143219,-0.771444499492645,4.15238666534424,-0.520402312278748,1.85075306892395,-0.008458396419883,0.302883267402649,-0.053954120725393,-0.292821705341339,-0.066898062825203
529,0.044682063162327,-0.246331185102463,1.03574442863464,-1.82509970664978,2.11962366104126,-0.657206892967224,1.85091507434845,-0.01051359064877,0.303324341773987,0.036553915590048,-0.339058607816696,-0.066066339612007
530,-0.110051907598972,0.040205273777247,0.947357475757599,-1.97307169437408,3.15045785903931,0.653371274471283,1.852055311203,-0.012585778720677,0.303681075572968,0.128769636154175,-0.497138768434525,-0.049010831862688
531,-0.085822530090809,0.046123497188091,0.966119349002838,-4.38150215148926,-0.786224961280823,-2.20544075965881,1.85113561153412,-0.012539951130748,0.304394364356995,-0.068640105426312,-0.405372083187103,-0.082870453596115
532,0.093789540231228,-0.033530168235302,0.975318193435669,-4.6160159111023,-3.4651038646698,-1.23628544807434,1.85081231594086,-0.013662998564541,0.30289500951767,-0.111637741327286,-0.344831526279449,-0.096006289124489
533,0.067321993410587,-0.303281784057617,0.947209000587463,-4.60887002944946,-5.45068597793579,-2.06370615959167,1.85054910182953,-0.015500557608903,0.303090065717697,-0.07612569630146,-0.274801641702652,-0.108038127422333
534,0.109031185507774,-0.374724447727203,1.01238644123077,-3.46931529045105,-5.83841133117676,-1.75454926490784,1.85011649131775,-0.016705533489585,0.303330212831497,-0.12247184664011,-0.18420022726059,-0.127962797880173
535,0.034187607467175,-0.565251350402832,0.998618006706238,-4.42547273635864,-6.40764713287354,-2.1781313419342,1.84966492652893,-0.016513489186764,0.301366716623306,-0.322383344173431,-0.111830398440361,-0.162248820066452
536,0.03653796762228,-1.07025861740112,1.12315201759338,-1.01229095458984,-3.09802031517029,-2.30742406845093,1.85037803649902,-0.019155237823725,0.301407933235168,-0.151254892349243,-0.158101707696915,-0.169726461172104
537,0.01633931696415,-0.523917734622955,0.996768832206726,-0.420563638210297,-3.64416813850403,-2.34574460983276,1.85022151470184,-0.020524183288217,0.301584213972092,-0.147590085864067,-0.128940671682358,-0.192221939563751
538,-0.020506886765361,-0.032585319131613,1.02913630008698,-1.60371553897858,0.900164842605591,-2.03794860839844,1.85030233860016,-0.020492153242231,0.300305783748627,-0.306522071361542,-0.162044733762741,-0.222592622041702
539,0.099341854453087,0.051154047250748,1.0232709646225,-0.930448889732361,2.07605814933777,-2.25171518325806,1.85052835941315,-0.021097188815475,0.300500273704529,-0.376437366008759,-0.218513295054436,-0.245627030730247
540,0.482460618019104,-0.251561254262924,0.971491575241089,-0.446973562240601,2.85067009925842,-1.63970375061035,1.85083615779877,-0.023900577798486,0.300495773553848,-0.171721145510674,-0.269959777593613,-0.252264201641083
541,0.202149644494057,-0.273520410060883,1.00250256061554,1.01716685295105,2.99021148681641,-2.16783857345581,1.85110104084015,-0.025381848216057,0.300547987222671,-0.133108511567116,-0.322369754314423,-0.267762631177902
542,0.160728931427002,-0.153077498078346,0.940814912319183,-1.23013079166412,-0.720852613449097,-1.93754649162292,1.85108363628387,-0.025423150509596,0.301933497190475,-0.284249007701874,-0.321946412324905,-0.295251339673996
543,0.095690093934536,0.083328269422054,1.00855112075806,0.561208367347717,0.043380171060562,-1.65804588794708,1.85110282897949,-0.027560604736209,0.301934033632278,-0.162418812513351,-0.306920081377029,-0.307190448045731
544,0.200246244668961,0.058616399765015,0.998469650745392,0.933453857898712,-3.88612604141235,-1.41925537586212,1.8508847951889,-0.029111556708813,0.30198261141777,-0.118402786552906,-0.240259408950806,-0.320154905319214
545,-0.04320228472352,0.019248081371188,1.0666024684906,0.137635454535484,-3.99995422363281,-1.23505687713623,1.85049140453339,-0.029348043724895,0.302251279354095,-0.256577163934708,-0.150524988770485,-0.342343181371689
546,-0.040276162326336,-0.03256181627512,1.37185108661652,-2.60240459442139,-6.77643489837647,-1.66479134559631,1.8498831987381,-0.029931938275695,0.302637100219727,-0.349121481180191,-0.02727465890348,-0.362614363431931
547,0.2811419069767,-0.466466844081879,1.15960144996643,0.572187900543213,-0.821469306945801,-0.272437244653702,1.8513503074646,-0.031976629048586,0.303142756223679,-0.211593046784401,-0.157069221138954,-0.35396546125412
548,0.079542547464371,-0.587471783161163,0.980338633060455,4.20242357254028,0.193157240748405,-1.66597497463226,1.85125315189362,-0.032260779291391,0.301884472370148,-0.268921196460724,-0.143474638462067,-0.3701411485672
549,0.24421900510788,-0.087599918246269,0.994040966033936,0.598446071147919,0.699751734733581,-0.677885949611664,1.85126936435699,-0.033819135278463,0.302358657121658,-0.199713096022606,-0.136799350380898,-0.377097725868225
