number,acc.x,acc.y,acc.z,gyro.x,gyro.y,gyro.z,stateEstimate.x,stateEstimate.y,stateEstimate.z,stabilizer.roll,stabilizer.pitch,stabilizer.yaw
0,0.065327599644661,-0.101209029555321,1.03479135036469,19.1846656799316,-10.1105651855469,-1.91892433166504,1.83242106437683,-0.734910130500793,0.30702069401741,-1.20890724658966,1.81169581413269,-1.32458889484406
1,0.481231659650803,-0.230568319559097,1.21505343914032,19.1081218719482,-7.28990840911865,0.670977294445038,1.82936751842499,-0.736913502216339,0.304092526435852,-0.85552841424942,1.92894434928894,-1.45051562786102
2,0.398994505405426,-0.067644469439983,1.20698368549347,23.0908145904541,-6.95780515670776,0.451175421476364,1.8299788236618,-0.732785880565643,0.302923291921616,-0.860209286212921,2.03953623771667,-1.33328783512115
3,-0.01372826565057,0.022488046437502,1.12976145744324,19.282096862793,-0.347176045179367,-1.07207429409027,1.82925033569336,-0.733847439289093,0.302267700433731,-0.468174695968628,1.98182201385498,-1.36933839321136
4,-0.016303841024637,0.182612925767899,1.0164760351181,13.920726776123,1.4045033454895,-0.209413900971413,1.82878386974335,-0.731181263923645,0.303028464317322,-0.413944453001022,1.99112641811371,-1.32326364517212
5,-0.052802372723818,0.100295342504978,1.06104862689972,10.3197031021118,14.1286249160767,-1.77743935585022,1.83279871940613,-0.728119134902954,0.302737891674042,-0.333960354328156,1.64926040172577,-1.18376469612122
6,0.129444643855095,0.02785037457943,1.14585971832275,10.9361944198608,20.6233997344971,-3.68194079399109,1.82977759838104,-0.726900815963745,0.302026808261871,-0.28945580124855,1.65914881229401,-1.24232065677643
7,0.0162124466151,-0.022161889821291,1.07771170139313,11.9073991775513,23.6497325897217,-5.59216260910034,1.82906651496887,-0.727198243141174,0.302885591983795,-0.060707397758961,1.35853314399719,-1.32172214984894
8,0.017197962850332,-0.063590183854103,1.0558317899704,11.3261547088623,16.3167991638184,-4.87937831878662,1.82942044734955,-0.725207149982452,0.302636682987213,-0.008905650116503,1.10378789901733,-1.33398950099945
9,-0.014676712453365,-0.218481689691544,1.0006183385849,10.1195344924927,8.70093441009522,-8.13602924346924,1.82853996753693,-0.724391758441925,0.302442967891693,0.111714906990528,0.965766310691834,-1.40321183204651
10,-0.097059942781925,-0.139849990606308,1.00401568412781,10.9781589508057,-1.06380212306976,-7.08536958694458,1.82749259471893,-0.724579453468323,0.302329242229462,0.293193072080612,0.860505640506744,-1.51040327548981
11,0.063421212136746,-0.158240512013435,1.05093121528625,10.1465759277344,-4.19896984100342,-6.48852062225342,1.82675814628601,-0.7215456366539,0.303763568401337,0.234820693731308,0.936010539531708,-1.52691745758057
12,0.009192728437483,-0.215135797858238,1.17239928245544,7.97362565994263,-4.39372491836548,-5.39244031906128,1.82528078556061,-0.72163188457489,0.303799629211426,0.417585968971252,0.978817701339722,-1.61647999286652
13,-0.007975172251463,-0.026709277182818,1.24385392665863,5.57925939559937,-4.93542385101318,-3.57822751998901,1.82416212558746,-0.720609664916992,0.30389067530632,0.495647013187408,1.06024610996246,-1.66398274898529
14,0.061004433780909,0.163088530302048,1.22865748405457,6.08678913116455,-1.1654851436615,-3.76105093955994,1.8231805562973,-0.71972781419754,0.303159534931183,0.571608066558838,1.1177921295166,-1.70019507408142
15,-0.073119580745697,0.186698779463768,1.17801237106323,6.82112741470337,-3.54488182067871,-1.36058127880096,1.82282269001007,-0.71834260225296,0.303695768117905,0.611369013786316,1.05984115600586,-1.73346042633057
16,0.416088730096817,0.225206688046455,0.962215542793274,12.5968160629272,-2.81994962692261,-3.06277012825012,1.8209171295166,-0.718024253845215,0.304239720106125,0.812363922595978,1.20985984802246,-1.7301629781723
17,0.384484529495239,0.050129782408476,0.871763169765472,15.8674602508545,-0.447777509689331,-2.94767594337463,1.82029271125793,-0.71598607301712,0.305986523628235,0.825104355812073,1.13683784008026,-1.75750946998596
18,0.055284012109041,-0.002603526692837,0.896045625209808,18.8502674102783,8.25456047058106,-4.7689995765686,1.81913709640503,-0.715715110301971,0.306653022766113,1.03142023086548,1.02876400947571,-1.81040132045746
19,0.229342982172966,0.072315774857998,0.930727422237396,15.4250774383545,18.0358409881592,-3.69123935699463,1.81839036941528,-0.715381026268005,0.307316124439239,1.19050216674805,0.720422923564911,-1.91784298419952
20,-0.046928565949202,0.018975360319018,1.02226138114929,7.50849533081055,16.1683902740479,-0.94139814376831,1.81730794906616,-0.713177084922791,0.30634006857872,1.31540334224701,0.772644639015198,-1.82440066337585
21,0.158389911055565,0.048117987811565,1.0969842672348,-2.94462776184082,12.3698682785034,-0.421210676431656,1.81596434116364,-0.714635908603668,0.306924939155579,1.45751583576202,0.392093688249588,-1.94774723052979
22,0.286088854074478,-0.050015293061733,1.15675437450409,-14.0002145767212,10.6581192016602,-1.81208920478821,1.81526744365692,-0.71167117357254,0.307251214981079,1.32913041114807,0.51685643196106,-1.82186102867126
23,0.276987254619598,0.026988992467523,1.08866715431213,-25.1480617523193,0.825999617576599,-4.13612508773804,1.81389105319977,-0.710612237453461,0.307903826236725,1.02223360538483,0.325940042734146,-1.93381726741791
24,0.136309817433357,0.203857287764549,1.11089015007019,-33.3568458557129,-0.413101613521576,-6.66377925872803,1.81275820732117,-0.708300292491913,0.311631977558136,0.667182981967926,0.396249562501907,-1.95497715473175
25,0.09765250235796,0.283683180809021,1.06231868267059,-35.2064323425293,2.45462679862976,-8.07364368438721,1.81126439571381,-0.707122147083283,0.312535881996155,0.228902921080589,0.304989635944366,-2.10539174079895
26,0.084244340658188,0.309491336345673,1.00898063182831,-27.308292388916,-0.330373495817184,-10.1019535064697,1.81038618087769,-0.707516431808472,0.313800930976868,0.106028661131859,0.286250919103622,-2.19816493988037
27,0.033043514937162,0.261033743619919,1.08067262172699,-15.2912244796753,7.07616662979126,-9.69990253448486,1.80990397930145,-0.706210017204285,0.316668480634689,0.051014512777329,0.456881374120712,-2.16549873352051
28,-0.041689403355122,0.000350053684087,1.17223381996155,4.39518642425537,5.5348424911499,-7.11149501800537,1.80861854553223,-0.707125782966614,0.31808340549469,0.082223519682884,0.270244598388672,-2.33681774139404
29,0.072473049163818,-0.151591300964356,1.16512489318848,27.2588424682617,-4.89515066146851,-4.37172508239746,1.80742967128754,-0.705184042453766,0.319296687841415,0.156230077147484,0.370647042989731,-2.36095881462097
30,0.212114885449409,-0.091450981795788,1.17424535751343,38.8856506347656,-8.14975261688232,-4.34630680084229,1.80694162845612,-0.706562519073486,0.321382403373718,0.751306176185608,0.410319000482559,-2.38332867622375
31,0.199104279279709,-0.109731689095497,1.20672941207886,41.1987953186035,-14.7512693405151,-2.91083073616028,1.80542659759521,-0.705187916755676,0.32305896282196,1.04866373538971,0.539995729923248,-2.44208884239197
32,0.015795599669218,-0.114883683621883,1.2288806438446,36.0651741027832,-24.6751194000244,-1.32307898998261,1.80417740345001,-0.703387260437012,0.324793040752411,1.41897642612457,0.862158238887787,-2.40756940841675
33,0.238537937402725,-0.070578791201115,1.12079179286957,33.1325416564941,-24.8612842559814,0.556132197380066,1.80281233787537,-0.703493177890778,0.327011525630951,1.78107488155365,1.00434732437134,-2.48430061340332
34,0.235530436038971,0.070416457951069,1.00902390480042,22.2579193115234,-19.0485877990723,2.70360589027405,1.80231964588165,-0.703731596469879,0.325539797544479,2.24582767486572,1.32251346111298,-2.41164922714233
35,0.257648110389709,0.033097181469202,1.02675175666809,15.2480316162109,-19.4208602905273,2.41727876663208,1.80026209354401,-0.700861394405365,0.327690541744232,2.15159916877747,1.55357730388641,-2.42510914802551
36,0.096548601984978,-0.059592440724373,0.86997926235199,4.84970951080322,-9.37336921691895,2.70101976394653,1.79909121990204,-0.701465666294098,0.329713255167007,2.38114452362061,1.67924857139587,-2.42093563079834
37,-0.183989033102989,0.001838319003582,0.898522675037384,-5.28681325912476,-1.41650068759918,4.87482833862305,1.79740858078003,-0.70149439573288,0.329045802354813,2.32947039604187,1.62845206260681,-2.47519207000732
38,-0.2672338783741,0.204519733786583,0.806564509868622,-14.4219980239868,9.98467540740967,6.3209080696106,1.79641890525818,-0.700299799442291,0.330610543489456,2.23139762878418,1.63760948181152,-2.36910510063171
39,0.360918551683426,0.149588480591774,0.759775578975678,-13.996470451355,21.9138412475586,5.09119701385498,1.79454624652863,-0.700509071350098,0.332258522510529,2.05790734291077,1.35415399074554,-2.40294194221497
40,0.23465895652771,0.177683636546135,0.734906613826752,-7.70907592773438,38.6232604980469,4.73266458511353,1.79404866695404,-0.698554992675781,0.3310486972332,1.92270112037659,1.18700778484344,-2.2380805015564
41,-0.072111137211323,0.160170018672943,0.776531100273132,-4.5164680480957,43.5304756164551,2.8392026424408,1.79217159748077,-0.699714124202728,0.331987321376801,1.91766428947449,0.715105354785919,-2.26625990867615
42,-0.13740436732769,-0.044109925627709,0.791743636131287,-5.08205556869507,41.0717620849609,1.64468348026276,1.79134559631348,-0.698402047157288,0.332528233528137,1.85008943080902,0.40134859085083,-2.15555763244629
43,-0.117572441697121,-0.112325429916382,0.848170340061188,-7.49750185012817,34.1222839355469,-0.314166009426117,1.78927230834961,-0.699371933937073,0.33163395524025,1.8156795501709,-0.074508681893349,-2.25612998008728
44,-0.08769004046917,-0.08126000314951,0.933680415153503,-3.52175259590149,10.3582525253296,-1.74622881412506,1.78944909572601,-0.696431159973145,0.331705987453461,1.7616161108017,-0.059234503656626,-2.03464770317078
45,0.135821014642715,-0.125372856855392,0.930116474628448,-5.09744119644165,-8.16567039489746,-1.30466556549072,1.78820765018463,-0.695805013179779,0.331709146499634,1.75152325630188,-0.054937180131674,-2.01569724082947
46,0.170726701617241,-0.10024144500494,0.919004738330841,-9.78938293457031,-13.76012134552,0.631593286991119,1.78767943382263,-0.694098114967346,0.33152362704277,1.70089435577393,0.185790613293648,-1.86465585231781
47,0.016812257468701,-0.009495604783297,0.943352818489075,-12.1604290008545,-15.3943977355957,1.58838510513306,1.78596317768097,-0.695240318775177,0.330893039703369,1.69855380058289,0.279751420021057,-1.88934397697449
48,0.26465630531311,0.019920956343412,0.958385050296783,-9.86437225341797,-13.6639671325684,1.02460384368896,1.78381609916687,-0.695066928863525,0.330783903598785,1.50391483306885,0.376547068357468,-1.94546127319336
49,-0.019440004602075,-0.270427107810974,0.897257447242737,-1.31628715991974,0.710171282291412,0.7224240899086,1.78234803676605,-0.696489810943604,0.330618619918823,1.54891991615295,0.410561591386795,-1.95870435237885
50,-0.122673757374287,-0.278328388929367,0.817661166191101,8.07109069824219,10.6257295608521,0.988441050052643,1.78070795536041,-0.697285175323486,0.325677216053009,1.58686363697052,0.284951537847519,-2.00386929512024
51,0.10607073456049,-0.133483245968819,0.711255371570587,18.9116382598877,22.4854259490967,0.810732960700989,1.77956736087799,-0.69816267490387,0.324879884719849,1.82310795783997,0.088913708925247,-1.9696444272995
52,0.176796153187752,0.052117601037026,0.811034023761749,27.8485107421875,35.2014389038086,-0.833878993988037,1.77802741527557,-0.700540721416473,0.323788493871689,2.21226119995117,-0.3774094581604,-2.0098123550415
53,0.290535449981689,-0.013690958730877,0.893944025039673,30.3218059539795,38.6782417297363,-1.56045019626617,1.77784609794617,-0.699508965015411,0.320105940103531,2.55774974822998,-0.58917623758316,-1.80914962291718
54,-0.003257185453549,-0.099703684449196,0.930835604667664,18.210916519165,37.5365600585937,-0.133226469159126,1.77560770511627,-0.70113742351532,0.318760484457016,2.75572156906128,-1.12326836585999,-1.91230130195618
55,0.342905789613724,-0.162075266242027,0.902378559112549,2.46669936180115,26.7233562469482,2.43345308303833,1.77387201786041,-0.700517952442169,0.31735035777092,2.7587034702301,-1.41688859462738,-1.88035762310028
56,0.19735823571682,-0.113060280680656,0.926334619522095,-20.2754974365234,15.3945970535278,6.6998496055603,1.771613240242,-0.699212074279785,0.315989226102829,2.4680187702179,-1.56603586673737,-1.84229278564453
57,-0.05662889406085,-0.050192590802908,0.996424376964569,-39.8782005310059,-6.85257148742676,8.81939220428467,1.76990461349487,-0.699097812175751,0.312469393014908,2.13461017608643,-1.61782205104828,-1.77803349494934
58,0.103057742118835,-0.054031278938055,1.01620173454285,-51.6288375854492,-22.4023571014404,11.6699886322021,1.77003049850464,-0.698762774467468,0.310584396123886,1.79121577739716,-1.37077796459198,-1.50984823703766
59,0.208302527666092,0.169874995946884,1.05205762386322,-58.6190376281738,-23.9875259399414,10.8226957321167,1.76654982566834,-0.698006868362427,0.308912873268127,1.01879000663757,-1.11910760402679,-1.51644575595856
60,0.011021508835256,0.06830695271492,1.17011392116547,-56.5993309020996,-24.4225559234619,11.9931573867798,1.76738357543945,-0.69849956035614,0.304803669452667,0.65520590543747,-0.802044451236725,-1.22920680046082
61,-0.045123036950827,-0.032334465533495,1.16145181655884,-49.8169975280762,-32.1382293701172,11.5005292892456,1.76298236846924,-0.69815331697464,0.303063273429871,-0.127623066306114,-0.525279343128204,-1.30148589611053
62,-0.040981754660606,-0.023297494277358,1.1508549451828,-41.1141510009766,-16.7450199127197,10.3596515655518,1.76484632492065,-0.699105978012085,0.301796615123749,-0.277660101652145,-0.212324813008308,-0.955184698104858
63,-0.024063201621175,0.131432980298996,1.10255432128906,-35.049388885498,-4.19068908691406,7.93962526321411,1.76116907596588,-0.701320767402649,0.301655322313309,-0.796636879444122,-0.373748987913132,-1.17900943756104
64,-0.012906502000988,0.064075946807861,1.09503757953644,-23.4904289245605,14.0935621261597,5.31080675125122,1.76094186306,-0.702932119369507,0.300694644451141,-0.980091333389282,-0.544311046600342,-1.14847993850708
65,-0.072885200381279,0.055216573178768,1.05059707164764,-15.3900127410889,23.7450580596924,3.92228603363037,1.76031649112701,-0.703169345855713,0.299576640129089,-1.10936284065247,-0.639908194541931,-1.03080332279205
66,-0.007968195714057,0.056671246886253,1.05072271823883,-10.0815105438232,27.9638805389404,1.72345125675201,1.76055479049683,-0.704358756542206,0.298723220825195,-1.12127578258514,-0.986708581447601,-0.972570538520813
67,-0.053956869989634,0.097472198307514,1.09141659736633,0.834772169589996,32.4401206970215,-1.41578435897827,1.76003706455231,-0.705180406570435,0.297508120536804,-1.15510666370392,-1.37628448009491,-0.996305108070374
68,-0.084490142762661,0.294541120529175,1.07509481906891,11.4908218383789,30.7320823669434,-3.98789000511169,1.75833415985107,-0.705525577068329,0.296591490507126,-1.03525590896606,-1.53886282444,-0.982908427715302
69,-0.051649793982506,0.350147873163223,1.10779643058777,21.1138858795166,23.0848789215088,-3.6347861289978,1.75606048107147,-0.705960690975189,0.29571869969368,-0.833864986896515,-1.6561404466629,-0.998464643955231
70,-0.080256223678589,0.255254089832306,1.03902280330658,28.4258117675781,19.1956195831299,-2.4478280544281,1.75577878952026,-0.706706941127777,0.296788156032562,-0.503468930721283,-1.87291777133942,-0.990730941295624
71,-0.016884867101908,-0.048979610204697,1.02472317218781,27.8003711700439,10.786509513855,-2.3148365020752,1.75327777862549,-0.706885755062103,0.296319276094437,-0.368095546960831,-2.07935833930969,-1.13509452342987
72,-0.055484790354967,-0.127730324864387,1.02397656440735,25.3207836151123,7.1425313949585,-3.2889347076416,1.75307190418243,-0.707211315631866,0.295810163021088,-0.108117669820786,-2.25354695320129,-1.16482961177826
73,0.041395913809538,0.123902216553688,1.0273962020874,19.9603862762451,5.75043344497681,-3.24378967285156,1.75244009494782,-0.707881093025208,0.294024735689163,0.241475850343704,-2.20104765892029,-1.10984992980957
74,-0.054390661418438,0.245690181851387,0.977919340133667,16.2824592590332,-4.13369607925415,-3.30595874786377,1.75132763385773,-0.708199918270111,0.293538600206375,0.333754360675812,-2.30487895011902,-1.20831143856049
75,0.397185742855072,0.163477346301079,0.877108752727508,12.3278245925903,-9.91865921020508,-2.06248998641968,1.7498025894165,-0.708767175674439,0.292902767658234,0.515253186225891,-2.13631534576416,-1.21807503700256
76,0.439849525690079,-0.053832251578569,0.950425684452057,9.4561939239502,-6.14204597473145,-2.62921142578125,1.7484678030014,-0.709171175956726,0.292321532964706,0.54830139875412,-2.13118076324463,-1.30316400527954
77,0.161153569817543,-0.132919251918793,1.00973045825958,-1.59045267105103,-2.27367186546326,-0.165111050009727,1.74776530265808,-0.709532201290131,0.29070109128952,0.553737759590149,-2.15515923500061,-1.34763216972351
78,0.01885799318552,0.013491332530975,1.17273211479187,-3.03510737419128,-6.46368646621704,0.774813890457153,1.74643075466156,-0.709919452667236,0.290014147758484,0.442436844110489,-2.17266869544983,-1.4081392288208
79,0.094491444528103,-0.08683992177248,1.27613615989685,-3.57050275802612,-7.43808698654175,0.709839522838593,1.74501764774323,-0.71027797460556,0.289496004581451,0.349766433238983,-2.12277555465698,-1.46005403995514
80,0.81012886762619,0.033169757574797,1.17008650302887,-2.25531601905823,-12.752103805542,0.895057737827301,1.74347448348999,-0.710609078407288,0.289996415376663,0.277022480964661,-2.00117921829224,-1.50403225421906
81,0.366440176963806,0.082731932401657,1.02970206737518,-3.95500683784485,-12.4869318008423,-0.685636103153229,1.74323916435242,-0.710829615592956,0.289869636297226,0.293793648481369,-1.83149874210358,-1.46506643295288
82,-0.113771505653858,0.023489262908697,1.05462229251862,-5.91344261169434,-25.1577758789062,-2.27163910865784,1.74278914928436,-0.711110532283783,0.28980615735054,0.264535397291183,-1.61119270324707,-1.46359479427338
83,-0.022497706115246,0.008814460597932,1.06969976425171,-11.1477375030518,-34.6993064880371,-3.66026186943054,1.74036359786987,-0.711496949195862,0.28848984837532,0.071645028889179,-1.2867306470871,-1.60441482067108
84,0.057040303945541,-0.055476643145084,1.0397914648056,-18.7741184234619,-37.5999183654785,-1.08875679969788,1.74204814434052,-0.711634695529938,0.28858095407486,-0.060193412005901,-1.1089061498642,-1.59615802764893
85,0.059995133429766,0.044748805463314,1.03474450111389,-20.2837905883789,-37.1611938476562,-0.595572054386139,1.74081873893738,-0.711899757385254,0.288571834564209,-0.272517263889313,-0.660170137882233,-1.61660575866699
86,0.005627377424389,0.024106521159411,1.10794150829315,-21.3945846557617,-29.8241100311279,-1.35247874259949,1.74280643463135,-0.712089359760284,0.285348832607269,-0.356163591146469,-0.373409539461136,-1.4970326423645
87,-0.023821383714676,0.023906951770187,1.05528736114502,-10.3740997314453,-21.4582080841064,-2.97935032844543,1.74168169498444,-0.712281405925751,0.285380959510803,-0.629848301410675,-0.21806788444519,-1.61926162242889
88,0.031230613589287,0.020838541910052,1.05913662910461,-0.277532547712326,-14.7606449127197,-2.99229145050049,1.7419605255127,-0.712723672389984,0.285375833511353,-0.559031665325165,0.041357275098562,-1.56325376033783
89,0.125120207667351,0.005501514766365,1.08707511425018,11.4287738800049,-8.37779712677002,-5.94430065155029,1.74427723884583,-0.713079333305359,0.285627096891403,-0.396812438964844,0.025466088205576,-1.5132874250412
90,0.106617718935013,-0.043323375284672,1.02997946739197,20.328462600708,-0.8430415391922,-8.60425472259522,1.74517154693604,-0.713711380958557,0.290146261453629,-0.146618828177452,0.064749866724014,-1.52935183048248
91,0.084428742527962,0.039140995591879,1.01006186008453,23.6568984985352,-3.7630763053894,-10.9236583709717,1.74564445018768,-0.713907599449158,0.290686756372452,0.036248110234737,-0.006487787235528,-1.6357307434082
92,-0.044446535408497,-0.000558282772545,1.04050934314728,15.5638246536255,-7.62726259231567,-12.7903890609741,1.74546635150909,-0.713962972164154,0.291248798370361,0.154129311442375,0.007402120158076,-1.78779304027557
93,0.045557837933302,-0.039721809327602,0.94770073890686,7.36583709716797,-11.8786392211914,-14.4115800857544,1.74469912052155,-0.714519798755646,0.291303128004074,0.275499701499939,0.174718514084816,-1.93099403381348
94,-0.065324753522873,-0.070229582488537,0.903210818767548,-4.88172388076782,-10.7187185287476,-15.4363260269165,1.74295616149902,-0.714320719242096,0.29178574681282,0.147104412317276,0.36382794380188,-2.146733045578
95,0.050481583923102,0.015340105630457,1.01788902282715,-16.4870281219482,-13.232442855835,-16.5301647186279,1.74390709400177,-0.714709579944611,0.292194366455078,0.078044913709164,0.408047020435333,-2.28169584274292
96,0.02999578602612,-0.012594831176102,0.990466415882111,-28.213888168335,-18.0353927612305,-17.043888092041,1.74351131916046,-0.713701009750366,0.290011495351791,-0.33856675028801,0.512051224708557,-2.49371719360352
97,0.040338825434446,-0.013973760418594,1.01367485523224,-33.6146469116211,-19.9338855743408,-18.71484375,1.74271309375763,-0.714361310005188,0.290214419364929,-0.59175181388855,0.805497109889984,-2.67225408554077
98,-0.11079179495573,-0.057433512061834,1.09112048149109,-32.6265563964844,-33.8994789123535,-20.3206233978271,1.74083137512207,-0.713918209075928,0.290333986282349,-1.03029644489288,1.21652638912201,-2.9007351398468
99,0.079704098403454,-0.018855854868889,1.01056373119354,-26.9812965393066,-35.8060836791992,-21.9766407012939,1.74170053005219,-0.714624464511871,0.290845483541489,-1.23475515842438,1.49448573589325,-3.08251643180847
100,0.030886791646481,0.044113326817751,1.03332960605621,-18.9990577697754,-34.7518692016602,-23.5437717437744,1.74456536769867,-0.715540885925293,0.292575567960739,-1.32936251163483,1.62305128574371,-3.24628639221191
101,0.009586340747774,0.000295581674436,1.01952648162842,-12.3970251083374,-30.1476535797119,-24.2984809875488,1.74377179145813,-0.714707911014557,0.292925953865051,-1.61008059978485,2.03344225883484,-3.48842740058899
102,0.065654017031193,0.004481124226004,1.00896048545837,-5.70551490783691,-21.3211078643799,-23.6039009094238,1.7443870306015,-0.715553820133209,0.293569058179855,-1.60408365726471,2.23516201972961,-3.71650242805481
103,0.026651168242097,0.00159982778132,1.00433301925659,2.87214469909668,-6.33265352249146,-21.6108741760254,1.74448502063751,-0.715490102767944,0.293751835823059,-1.62941777706146,2.37430310249329,-3.93441033363342
104,0.00900168158114,0.028381109237671,1.05573773384094,11.9732027053833,11.4686441421509,-19.4871234893799,1.744908452034,-0.716062486171722,0.294346660375595,-1.48628950119019,2.31325435638428,-4.1375675201416
105,0.153910934925079,-0.018380178138614,0.942411601543426,24.3108100891113,18.9970512390137,-15.9577646255493,1.74628484249115,-0.717429339885712,0.29509100317955,-1.14652216434479,1.99259293079376,-4.31047487258911
106,0.162752032279968,0.016704423353076,0.939105272293091,35.2240257263184,32.4508209228516,-14.4901857376099,1.74489188194275,-0.715885639190674,0.29524964094162,-1.0134414434433,1.89770972728729,-4.45586585998535
107,0.141492903232574,0.000497642264236,0.978617608547211,40.3675765991211,49.1668739318848,-12.0090341567993,1.74480807781219,-0.718946695327759,0.29580095410347,-0.379938900470734,1.34203934669495,-4.66419553756714
108,-0.006063077133149,-0.194278717041016,0.985274672508239,41.5029296875,55.4574661254883,-9.48953628540039,1.74220585823059,-0.717123746871948,0.296399116516113,-0.190284550189972,1.10562181472778,-4.78003978729248
109,-0.095547273755074,-0.120390057563782,0.936889886856079,34.0532455444336,50.0938758850098,-6.39997386932373,1.7452005147934,-0.716391742229462,0.297566473484039,0.190600126981735,0.40873196721077,-4.75803995132446
110,-0.004287433810532,-0.023471813648939,0.777719378471375,29.0490760803223,33.0375480651855,-5.35753726959229,1.7420916557312,-0.71643728017807,0.298035591840744,0.443614840507507,0.224783778190613,-4.87640714645386
111,-0.10085741430521,-0.033857520669699,0.748282790184021,13.0113878250122,13.2880373001099,-2.98059296607971,1.74098360538483,-0.716091513633728,0.298215746879578,0.618732690811157,0.082879804074764,-4.92340183258057
112,0.047526866197586,-0.046767566353083,0.91042423248291,1.90172588825226,9.39307022094727,-0.501281559467316,1.74218201637268,-0.714933037757874,0.29818731546402,0.609856188297272,-0.061608001589775,-4.87839126586914
113,-0.078980311751366,-0.172814235091209,0.987510859966278,-15.1476936340332,-0.283390671014786,1.13983488082886,1.74243545532227,-0.71376383304596,0.297629684209824,0.450270801782608,-0.055963236838579,-4.83586978912354
114,-0.156339094042778,0.00479184743017,0.981017768383026,-31.0134735107422,-9.75568199157715,2.86674404144287,1.7405036687851,-0.713350892066956,0.297420799732208,0.156082436442375,0.177243441343308,-4.83513402938843
115,-0.126644611358643,-0.106012366712093,0.863523125648499,-41.4053077697754,-13.4650936126709,4.94668006896973,1.7409074306488,-0.712359964847565,0.297133564949036,-0.31491094827652,0.254734009504318,-4.75766324996948
116,-0.027227962389588,-0.247052192687988,0.818391740322113,-43.7282371520996,-22.1906070709228,6.20093822479248,1.74082732200623,-0.709663510322571,0.297245264053345,-0.941329061985016,0.523279309272766,-4.63647079467773
117,-0.020725943148136,-0.094703316688538,0.788104593753815,-45.3605270385742,-31.204008102417,7.8457465171814,1.73850059509277,-0.712392568588257,0.296990305185318,-1.14337384700775,0.787377715110779,-4.64705085754395
118,0.014812310226262,0.011311011388898,0.880052924156189,-41.2259826660156,-28.2619400024414,8.50178718566895,1.73876929283142,-0.709761619567871,0.296023100614548,-1.7808541059494,1.0888671875,-4.49688100814819
119,0.154030323028564,0.048072297126055,0.964217901229858,-34.2866744995117,-23.8837776184082,9.19133186340332,1.73627102375031,-0.712348222732544,0.298442542552948,-1.91587436199188,1.36394083499908,-4.48385000228882
120,0.068223476409912,0.008073531091213,1.05969572067261,-21.1792163848877,-25.3451519012451,8.31173133850098,1.73459589481354,-0.713283896446228,0.297830730676651,-2.09872651100159,1.65088260173798,-4.43328666687012
121,0.216006770730019,-0.013535688631237,1.12364280223846,-5.9365758895874,-22.1283073425293,10.5736770629883,1.73462271690369,-0.713239431381226,0.297325104475021,-2.2169668674469,1.82968842983246,-4.313072681427
122,0.242779895663261,-0.034836851060391,1.26352143287659,9.47263717651367,-18.0264110565186,11.4567489624023,1.73223042488098,-0.71422803401947,0.296796649694443,-2.10722303390503,2.10663175582886,-4.25800895690918
123,0.050224803388119,0.057336792349815,1.1658741235733,28.9697017669678,-12.6283922195435,10.8760929107666,1.73351216316223,-0.713988959789276,0.297768980264664,-1.86207938194275,2.11253929138184,-4.09514999389648
124,-0.033816009759903,0.04901647567749,1.04557681083679,38.3367004394531,3.01125693321228,12.8940687179565,1.73287153244019,-0.715098023414612,0.297903805971146,-1.41214895248413,2.10021924972534,-4.00093746185303
125,0.118365950882435,0.132704645395279,0.960639119148254,41.8704032897949,11.3532686233521,12.8301982879639,1.73273015022278,-0.715515851974487,0.298038929700851,-0.953281581401825,1.96458625793457,-3.86895108222961
126,0.011772498488426,0.123382844030857,0.857391893863678,42.656623840332,19.8607883453369,15.8231372833252,1.73361849784851,-0.711288213729858,0.294805616140366,-0.850906074047089,1.88105022907257,-3.58746266365051
127,0.075435921549797,-0.140945956110954,0.809156775474548,34.0291404724121,24.7449684143066,16.8354988098145,1.73296058177948,-0.713212907314301,0.294692993164062,-0.290718913078308,1.52311205863953,-3.48165559768677
128,0.021320531144738,-0.135792672634125,0.956954658031464,15.3172073364258,37.9522972106934,17.4449462890625,1.7317978143692,-0.71210515499115,0.294214874505997,-0.142281070351601,1.27365553379059,-3.29808259010315
129,0.815089404582977,-0.251086086034775,1.11719346046448,8.70908355712891,36.8117179870605,17.4497509002686,1.73316299915314,-0.71050763130188,0.295289546251297,-0.1028046682477,0.815272212028503,-3.04458093643188
130,1.66065394878387,-0.439367145299912,1.11191642284393,-1.68402087688446,26.5073108673096,18.9770526885986,1.73180055618286,-0.708943009376526,0.294991582632065,-0.177150949835777,0.606828927993774,-2.8423764705658
131,0.508587062358856,-0.204337403178215,1.05212783813477,-2.71796894073486,13.2518749237061,17.8120441436768,1.72792148590088,-0.70942223072052,0.29473802447319,-0.173652306199074,0.590164661407471,-2.74706864356995
132,-0.061221826821566,0.010623788461089,1.01252329349518,-3.94682383537292,3.752521276474,17.8673133850098,1.72554910182953,-0.709500908851624,0.294540792703629,-0.183989465236664,0.577296793460846,-2.61124205589294
133,-0.145122393965721,-0.008580677211285,1.03478062152863,4.79801654815674,-6.89605569839478,15.3490619659424,1.72488212585449,-0.708739280700684,0.293166488409042,-0.210313096642494,0.590209722518921,-2.42864370346069
134,-0.058880839496851,0.142869472503662,1.07023298740387,8.29152965545654,-8.98728084564209,15.0825481414795,1.72464954853058,-0.708194315433502,0.293072044849396,-0.157168030738831,0.601963341236115,-2.25888657569885
135,0.03869715705514,0.036117158830166,1.04409742355347,15.4865274429321,-6.54029703140259,14.5450668334961,1.7252322435379,-0.706387937068939,0.293024271726608,-0.127184927463532,0.598512768745422,-2.05200457572937
136,0.125483691692352,0.016629533842206,0.997520625591278,22.2408485412598,-2.79710292816162,14.5689601898193,1.72360062599182,-0.707333087921143,0.291955143213272,0.179144114255905,0.640888869762421,-1.94954526424408
137,-0.076028004288673,-0.000151600514073,1.03983449935913,29.1757431030273,-1.06029522418976,14.3369169235229,1.71997427940369,-0.707206010818481,0.291677683591843,0.431474030017853,0.876009881496429,-1.84816908836365
138,0.025491071864963,-0.031817547976971,1.02509808540344,32.7910232543945,0.208173125982285,14.1407680511475,1.71977961063385,-0.707876920700073,0.291796743869781,0.84490317106247,0.73913449048996,-1.71838045120239
139,0.169358268380165,-0.179108843207359,0.969423413276672,26.5093955993652,5.8370361328125,12.531641960144,1.71905744075775,-0.706723093986511,0.290782392024994,1.09008502960205,0.719654202461243,-1.56324243545532
140,0.053764473646879,0.163678824901581,1.20416676998138,15.4298543930054,13.8956155776978,13.1818370819092,1.71910560131073,-0.704551875591278,0.290797293186188,1.12860536575317,0.591023147106171,-1.38357472419739
141,0.038139004260302,0.061298422515392,1.0762927532196,6.42035722732544,18.1834926605225,11.8336582183838,1.71925234794617,-0.70269787311554,0.290939748287201,1.11815190315247,0.356463044881821,-1.22100269794464
142,-0.035057879984379,-0.01643243804574,1.09993195533752,-3.9737696647644,20.4301109313965,8.82765579223633,1.71642243862152,-0.702466785907745,0.290921121835709,1.16328740119934,0.350876808166504,-1.11212146282196
143,0.058204032480717,0.011013743467629,1.02569353580475,-10.3470287322998,22.4726505279541,8.32554721832275,1.71594297885895,-0.702068030834198,0.292676240205765,1.08236050605774,0.012833749875426,-1.03770732879639
144,-0.08988156914711,0.091715022921562,1.13230431079865,-10.7263746261597,17.5902233123779,7.48106288909912,1.71483254432678,-0.700398206710815,0.293018788099289,0.868102610111237,-0.140954732894897,-0.925809264183044
145,0.023685425519943,-0.005244363099337,1.01940023899078,-6.12797975540161,10.9934463500977,5.13532972335815,1.71313071250916,-0.699698269367218,0.293420165777206,0.793520212173462,-0.181872963905335,-0.83958500623703
146,0.022499416023493,0.032790619879961,1.00954568386078,-2.02300477027893,4.4565806388855,3.89808750152588,1.71161639690399,-0.700196385383606,0.29001048207283,0.866381943225861,-0.201138079166412,-0.790074110031128
147,0.218956649303436,0.000526658957824,1.00997519493103,6.54595708847046,-1.18766033649445,2.70175766944885,1.71077275276184,-0.700989067554474,0.290471851825714,0.969030797481537,-0.351677864789963,-0.80289089679718
148,0.239240512251854,-0.002633126685396,1.01311218738556,13.44455909729,-1.35690188407898,2.71945548057556,1.70914876461029,-0.700730621814728,0.290709257125854,1.11621415615082,-0.21755351126194,-0.737897872924805
149,0.198150262236595,-0.109746627509594,1.12677097320557,15.23291015625,2.83074522018433,2.79551029205322,1.70836567878723,-0.701462209224701,0.290802925825119,1.31684839725494,-0.370404422283173,-0.759030163288116
150,-0.007033359725028,-0.187706857919693,1.2184921503067,14.97802734375,3.15968084335327,4.14488506317139,1.70714056491852,-0.70043271780014,0.291347086429596,1.36274516582489,-0.420032113790512,-0.723931074142456
151,0.110209211707115,0.056734822690487,1.26481735706329,11.0068502426147,6.91701555252075,5.49827098846436,1.70591223239899,-0.700240433216095,0.292033851146698,1.5205842256546,-0.395183980464935,-0.641617119312286
152,-0.083350233733654,0.130075499415398,1.23766255378723,9.35964107513428,7.80967521667481,5.03818988800049,1.70469450950623,-0.699963569641113,0.292287915945053,1.63336193561554,-0.41867607831955,-0.555043756961823
153,-0.068047352135182,-0.030310943722725,1.1687558889389,9.28980255126953,7.41766405105591,5.75802803039551,1.70343422889709,-0.699731945991516,0.293451726436615,1.73689270019531,-0.459730982780456,-0.475695908069611
154,0.068853832781315,0.016542943194509,1.10954177379608,8.73227024078369,8.14082336425781,6.80378532409668,1.70220482349396,-0.700174987316132,0.294963747262955,1.81264162063599,-0.661242067813873,-0.471722036600113
155,-0.0143734626472,0.062504440546036,1.13960635662079,4.24455451965332,8.51422309875488,7.55843544006348,1.70097994804382,-0.699676692485809,0.296483814716339,1.8498272895813,-0.699139893054962,-0.37259978055954
156,-0.075286217033863,-0.034247122704983,1.11983478069305,0.068164832890034,3.66123604774475,7.3942346572876,1.69998168945313,-0.699836075305939,0.295567899942398,1.88631224632263,-0.785524845123291,-0.300491571426392
157,-0.056027565151453,-0.014486095868051,1.07691240310669,0.015341809019446,4.39461898803711,8.11600685119629,1.69849669933319,-0.69928240776062,0.297277748584747,1.79360115528107,-0.80754679441452,-0.242071658372879
158,0.068298056721687,-0.026243191212416,0.9201300740242,-1.75055909156799,0.846080005168915,7.60678768157959,1.69733762741089,-0.699152410030365,0.298997789621353,1.77552485466003,-0.829317688941956,-0.15574911236763
159,-0.005792820826173,-0.010435375384986,0.984021127223968,-6.53457927703857,-6.01912784576416,7.89864492416382,1.69629573822021,-0.69858592748642,0.297586143016815,1.72479617595673,-0.743812263011932,-0.048542875796557
160,0.003593874396756,-0.036082498729229,0.944664001464844,-7.9377293586731,-10.1225385665894,7.51434183120728,1.69513881206512,-0.699156224727631,0.299106180667877,1.67052555084229,-0.730316519737244,-0.013311301358044
161,-0.014227332547307,-0.068529009819031,0.891304492950439,-18.8461608886719,-14.8911724090576,7.80116653442383,1.69442367553711,-0.699171185493469,0.300461739301682,1.57970225811005,-0.536129653453827,0.112161561846733
162,0.114987291395664,0.1509979814291,0.830239772796631,-24.860466003418,-11.7595739364624,6.51224899291992,1.69348037242889,-0.69924134016037,0.292965203523636,1.3619601726532,-0.404654949903488,0.160281091928482
163,-6.89417947796756E-06,0.191814318299294,0.851164758205414,-31.4397163391113,-10.0698041915894,7.56720447540283,1.69183337688446,-0.699590504169464,0.293659895658493,1.01644480228424,-0.374535351991653,0.136442214250565
164,-0.0322027169168,0.064551532268524,0.878242969512939,-37.0424766540527,-7.29760932922363,10.4804086685181,1.69119966030121,-0.700334906578064,0.294155120849609,0.739894211292267,-0.340560883283615,0.222908690571785
165,0.095212124288082,0.053611427545548,0.915752112865448,-37.2149353027344,-4.99028205871582,11.3176679611206,1.69020533561707,-0.699328422546387,0.29431825876236,0.313600689172745,-0.146276578307152,0.425373733043671
166,0.14495912194252,0.002712615765631,0.953139841556549,-33.9167938232422,-2.30742859840393,11.1693639755249,1.68996012210846,-0.699988424777985,0.291303694248199,0.071358606219292,-0.087363608181477,0.614284157752991
167,0.139727711677551,-0.224207013845444,0.916495501995087,-20.3258819580078,0.168456226587296,8.79267692565918,1.6885758638382,-0.700605750083923,0.291489094495773,-0.250170290470123,-0.230818405747414,0.608352065086365
168,0.103751726448536,-0.158181518316269,0.886190474033356,-10.5388517379761,9.29129600524902,8.96003437042236,1.68779563903809,-0.701060116291046,0.291449129581451,-0.359455525875092,-0.279643535614014,0.708821177482605
169,0.03274068236351,-0.062415525317192,0.950248181819916,0.859894514083862,8.3828592300415,8.34958648681641,1.6868714094162,-0.701199233531952,0.28534722328186,-0.446791172027588,-0.45146182179451,0.735802888870239
170,-0.027055244892836,-0.125911563634872,0.934630990028381,14.2790031433105,7.94336318969727,8.59992408752441,1.68652439117432,-0.70240181684494,0.284807175397873,-0.157595545053482,-0.381962209939957,0.952886343002319
171,0.065604366362095,-0.060877203941345,0.978967189788818,22.4179935455322,10.0288333892822,6.27575826644897,1.68688917160034,-0.70387727022171,0.284400433301926,0.124659925699234,-0.649826109409332,1.00519979000092
172,0.077585577964783,-0.273949384689331,0.983584582805634,24.0746803283691,3.15148639678955,4.93980550765991,1.68398833274841,-0.702989459037781,0.283135443925858,0.244112581014633,-0.502034664154053,1.07669985294342
173,-0.020642433315516,-0.267587125301361,0.975560903549194,16.1800594329834,-0.933269917964935,5.08756923675537,1.68229413032532,-0.703589916229248,0.282319635152817,0.520242035388947,-0.356663882732391,1.18777525424957
174,0.142479345202446,-0.177222341299057,0.927107095718384,5.37123966217041,-2.6594386100769,2.52389550209045,1.6815596818924,-0.703615367412567,0.281896620988846,0.541934311389923,-0.469011843204498,1.17305052280426
175,0.074675790965557,-0.208200067281723,0.847324311733246,-7.25758695602417,-7.03032159805298,2.76882719993591,1.67969536781311,-0.703284382820129,0.279737919569015,0.446866422891617,-0.371906220912933,1.17529320716858
176,-0.008488481864333,-0.057126019150019,0.84120911359787,-10.9405555725098,-13.023401260376,0.99881899356842,1.67839407920837,-0.702835500240326,0.278820723295212,0.252761512994766,-0.310969769954681,1.14913356304169
177,0.046592492610216,-0.23305132985115,0.883538126945496,-15.6654796600342,-18.9858741760254,1.50325202941895,1.67708694934845,-0.702613830566406,0.277658641338348,0.071972154080868,-0.149035215377808,1.13782954216003
178,-0.001186545938253,-0.152090787887573,0.900730967521668,-14.9422388076782,-25.2299537658691,1.55314242839813,1.67551064491272,-0.702338218688965,0.27628818154335,-0.12381287664175,0.123902037739754,1.15124416351318
179,-0.020222995430231,-0.057081084698439,0.93740850687027,-12.7495307922363,-28.0924854278564,0.239868238568306,1.67522180080414,-0.70334792137146,0.274148166179657,-0.125879779458046,0.385597258806229,1.19016289710999
180,0.038125697523356,0.012072326615453,0.93370646238327,-7.70443439483643,-27.7639064788818,-1.88104629516602,1.67330169677734,-0.702869534492493,0.272508770227432,-0.312514871358871,0.734980583190918,1.16724359989166
181,0.112635642290115,-0.1030298396945,0.968213498592377,-0.055563986301422,-24.2728614807129,-3.17005133628845,1.67185592651367,-0.702801525592804,0.270815551280975,-0.354799836874008,1.02479410171509,1.13407170772553
182,0.135857954621315,-0.131099969148636,1.05465853214264,6.04935789108276,-13.7495260238647,-2.89221096038818,1.67120635509491,-0.703631043434143,0.267417043447494,-0.224849864840507,1.19577443599701,1.118861079216
183,0.253985315561295,-0.037371277809143,1.1198171377182,15.4864044189453,-4.84582710266113,-2.90323138237,1.67108154296875,-0.704367458820343,0.265893548727035,-0.045244783163071,1.19284701347351,1.09909343719482
184,0.595870494842529,-0.058410245925188,1.16478800773621,20.2257766723633,7.89690446853638,-2.67868399620056,1.67168343067169,-0.705521702766418,0.264622688293457,0.255370259284973,1.01001679897308,1.07939410209656
185,0.392666429281235,-0.277208536863327,1.28200662136078,24.3626861572266,13.2419748306274,-3.43131279945374,1.67191636562347,-0.707013130187988,0.26423379778862,0.603420794010162,0.770387053489685,1.05448687076569
186,0.318416595458984,-0.101339228451252,1.13506245613098,24.5091247558594,17.1693935394287,-2.66061210632324,1.671626329422,-0.707895040512085,0.263186007738113,0.892146766185761,0.556076884269714,1.02315974235535
187,0.157734587788582,-0.026792667806149,1.03002738952637,17.8695774078369,17.7865295410156,-3.15976238250732,1.66993117332459,-0.709143221378326,0.262092262506485,1.1677907705307,0.471175402402878,0.988917648792267
188,-0.038618892431259,-0.023938274011016,1.05623197555542,6.71007299423218,15.8255252838135,-2.42742729187012,1.66808998584747,-0.707452595233917,0.261533200740814,1.05983734130859,0.459159076213837,0.993775606155396
189,0.004781200084835,0.000723289267626,1.13121473789215,-5.87884378433228,11.8000183105469,-2.18579268455505,1.66767287254334,-0.707101762294769,0.258933216333389,0.977643013000488,0.27935454249382,0.987321734428406
190,0.044681362807751,0.031933300197125,1.07940018177032,-17.3701343536377,6.81644344329834,-1.66622853279114,1.66570425033569,-0.707409799098969,0.257995307445526,0.85620790719986,0.309243023395538,0.976240158081055
191,0.010397621430457,-0.097537018358708,1.03915917873383,-23.7063789367676,3.43320727348328,-2.66050744056702,1.66456258296967,-0.705741584300995,0.257331073284149,0.439552545547485,0.326057225465775,0.993071436882019
192,0.012769737280905,-0.115199007093906,1.11572229862213,-27.9713764190674,2.32169508934021,-2.26705694198608,1.66398894786835,-0.706129908561706,0.252210438251495,0.195853173732758,0.212999269366264,0.950885653495789
193,0.007822850719094,0.021027268841863,1.20372486114502,-24.4205360412598,-0.344926685094833,-3.2567126750946,1.66201829910278,-0.707334280014038,0.251300126314163,0.044230099767447,0.299594908952713,0.922456085681915
194,0.004922499414533,0.096602387726307,1.15402257442474,-18.7933197021484,-6.94791030883789,-3.15400719642639,1.66178572177887,-0.706149101257324,0.2508165538311,-0.362896084785461,0.217256501317024,0.89168918132782
195,0.035526979714632,0.104112356901169,1.07978451251984,-8.65289211273193,-8.00969791412354,-4.53034162521362,1.66117227077484,-0.706894874572754,0.252773940563202,-0.44500732421875,0.216824501752853,0.839263677597046
196,0.046317916363478,-0.067888647317886,1.03394138813019,-2.09155297279358,-6.53156137466431,-4.59571981430054,1.66012310981751,-0.708005666732788,0.252583771944046,-0.395134329795837,0.279046952724457,0.785025060176849
197,0.022313915193081,-0.067948080599308,1.11059486865997,0.662884712219238,-0.797813773155212,-3.85840797424316,1.65860438346863,-0.70939040184021,0.252360612154007,-0.272589355707169,0.361391544342041,0.73162168264389
198,0.014730104245246,-0.075351871550083,1.25048863887787,5.78592395782471,3.67100429534912,-2.73945355415344,1.65753495693207,-0.709668874740601,0.252309888601303,-0.262668013572693,0.342256933450699,0.701939046382904
199,0.035202816128731,0.11633662134409,1.13410258293152,9.73743438720703,7.87523603439331,-2.49973154067993,1.65660214424133,-0.710238635540008,0.255209237337112,-0.167786151170731,0.244410812854767,0.673469603061676
200,-0.028188593685627,0.038648102432489,1.04924952983856,13.3985147476196,10.4102373123169,-2.68911790847778,1.6575049161911,-0.710138082504272,0.255866885185242,-0.086217314004898,-0.03306095674634,0.674097299575806
201,-0.00201368983835,-0.114579863846302,1.05240750312805,12.5996351242065,11.4052486419678,-4.23027038574219,1.65636003017426,-0.709620654582977,0.256391882896423,-0.05525416135788,-0.106415666639805,0.63482791185379
202,0.075084120035172,-0.02517812140286,1.13734757900238,7.19599723815918,7.81084632873535,-3.78594470024109,1.65478515625,-0.71016138792038,0.258192598819733,0.055642917752266,-0.128338977694511,0.586653172969818
203,0.098764687776566,0.070650175213814,1.19128894805908,2.08854651451111,4.7388801574707,-3.95255923271179,1.65302538871765,-0.711039781570435,0.258928596973419,0.148745164275169,-0.132644146680832,0.535605609416962
204,0.04552885890007,0.054971065372229,1.10566174983978,-2.09817361831665,1.87974691390991,-3.59735822677612,1.65186166763306,-0.712201714515686,0.259819954633713,0.233160927891731,-0.144143059849739,0.496673941612244
205,0.000836420047563,0.037867829203606,1.01973402500153,-9.84938716888428,-1.13470995426178,-1.09262669086456,1.65108168125153,-0.71118700504303,0.264547526836395,-0.015972534194589,-0.164789825677872,0.480818718671799
206,-0.06159008294344,-0.192732930183411,0.956317365169525,-16.301248550415,-4.70663642883301,1.62932562828064,1.6501955986023,-0.710982859134674,0.265831142663956,-0.207035735249519,-0.128805950284004,0.488622158765793
207,0.00832290481776,-0.080092199146748,1.02457511425018,-19.4906978607178,-2.11954951286316,2.53492212295532,1.64865577220917,-0.711203753948212,0.267026513814926,-0.391178071498871,-0.034717921167612,0.506111681461334
208,0.019079437479377,-0.096437767148018,1.13669109344482,-16.4941368103027,4.38172245025635,4.44723463058472,1.64901292324066,-0.710766971111298,0.268494844436645,-0.637144565582275,-0.207110986113548,0.55816638469696
209,0.102730333805084,0.091619603335857,1.20227873325348,-7.27128887176514,10.5347337722778,5.92045736312866,1.64817726612091,-0.710331082344055,0.271204859018326,-0.831181347370148,-0.317263960838318,0.611202776432037
210,0.082602582871914,0.087778821587563,1.10098016262054,2.89974021911621,18.3500499725342,7.32984304428101,1.64828658103943,-0.711395025253296,0.273105204105377,-0.695715427398682,-0.568471252918243,0.706818222999573
211,0.170233741402626,-0.009737396612763,1.02073991298676,17.2657241821289,22.5289440155029,7.78736877441406,1.64705777168274,-0.712843418121338,0.274993777275085,-0.422938913106918,-0.737277090549469,0.787471950054169
212,0.09794058650732,0.020956886932254,1.03595983982086,26.2703914642334,21.4465866088867,9.89531135559082,1.64484930038452,-0.714382350444794,0.278559535741806,-0.067056998610497,-0.865047097206116,0.862488448619843
213,0.101825401186943,-0.053513746708632,1.08036744594574,27.5730152130127,12.707781791687,12.7718391418457,1.64517438411713,-0.713997364044189,0.280776858329773,0.110431171953678,-1.16654324531555,0.998116910457611
214,0.099899247288704,0.280557483434677,1.06827890872955,27.2938232421875,2.98611855506897,13.3550977706909,1.64398860931396,-0.714405834674835,0.282988727092743,0.354813188314438,-1.19688892364502,1.12636911869049
215,0.121600285172462,0.297419279813766,1.04948043823242,16.475284576416,-6.31895303726196,15.0615472793579,1.641841173172,-0.714446127414703,0.283965975046158,0.462321937084198,-1.09531891345978,1.23281133174896
216,0.035296440124512,0.011647512204945,0.963225424289703,11.4351167678833,-12.7742147445679,15.622519493103,1.64065086841583,-0.714096307754517,0.28630593419075,0.493044704198837,-1.00319278240204,1.36125612258911
217,-0.138561233878136,-0.065568886697292,1.05442214012146,5.83209466934204,-16.8804740905762,14.971607208252,1.63899767398834,-0.713538587093353,0.288653343915939,0.441388070583344,-0.847829937934876,1.46207439899445
218,-0.040309824049473,-0.028843693435192,1.05125713348389,-2.95772480964661,-18.12428855896,14.3452682495117,1.63778626918793,-0.713561773300171,0.29063293337822,0.423969894647598,-0.63266259431839,1.60057020187378
219,0.131655037403107,-0.022354654967785,0.976056218147278,-10.7801809310913,-16.8540744781494,13.8339776992798,1.63715600967407,-0.713229775428772,0.293036133050919,0.293744772672653,-0.506255209445953,1.7233635187149
220,0.034409865736961,-0.052911035716534,0.921611607074738,-22.2847995758057,-16.1778812408447,13.9137773513794,1.63817393779755,-0.713726580142975,0.295455068349838,0.210223972797394,-0.456144064664841,1.90334975719452
221,-0.095583707094193,-0.073574759066105,0.855478525161743,-32.8057479858398,-17.6594276428223,14.2379579544067,1.63662135601044,-0.713474571704865,0.29764661192894,-0.151413455605507,-0.23686408996582,2.01699709892273
222,-0.068864084780216,0.137015745043755,0.862248778343201,-37.5845489501953,-24.6478996276855,14.3297071456909,1.63530790805817,-0.712804973125458,0.295552641153336,-0.635805010795593,-0.002209055237472,2.12618517875671
223,0.118778310716152,0.181991264224052,0.929739534854889,-35.5831756591797,-26.9215812683105,16.0395755767822,1.6339910030365,-0.713205873966217,0.297189354896545,-0.954654932022095,0.331300854682922,2.29945039749145
224,0.045488931238651,-0.046463172882795,0.985064685344696,-26.9299583435059,-27.0000591278076,15.2448892593384,1.63597369194031,-0.713776051998138,0.299207746982574,-1.13328039646149,0.397824168205261,2.51425790786743
225,0.031648259609938,-0.009964551776648,0.943798065185547,-14.0642099380493,-23.8126735687256,13.5344352722168,1.63578808307648,-0.714085578918457,0.30146187543869,-1.27309548854828,0.656358361244202,2.67714738845825
226,-0.043457351624966,-0.014260460622609,0.868579566478729,-0.738986730575562,-17.4914379119873,13.4065847396851,1.63418674468994,-0.714081168174744,0.302936315536499,-1.34465169906616,0.911802232265472,2.79551672935486
227,-0.017751462757588,-0.012073357589543,0.929796040058136,14.3591070175171,-11.5918130874634,10.8863334655762,1.63358664512634,-0.714639484882355,0.304437398910522,-1.21111142635345,1.03218805789948,2.92271399497986
228,0.042591996490955,-0.044725321233273,0.948737978935242,27.2828044891357,-2.22292160987854,7.12901782989502,1.63399541378021,-0.715977370738983,0.303549766540527,-0.828216075897217,1.00339353084564,3.03694224357605
229,0.000639995152596,-0.186377391219139,0.83198618888855,35.968994140625,8.61485958099365,5.95072984695435,1.63731479644775,-0.717556655406952,0.304989218711853,-0.266502618789673,0.71709144115448,3.18637728691101
230,-0.049291510134935,0.056055173277855,0.845014929771423,41.8308486938477,17.8770389556885,4.62491703033447,1.63308048248291,-0.714397609233856,0.306234896183014,-0.282359421253204,0.820852160453796,3.16056323051453
231,-0.154584363102913,-0.019775595515967,1.02110230922699,42.5298767089844,23.9310569763184,4.56969833374023,1.63450455665588,-0.723789274692535,0.30736893415451,1.08009397983551,0.41117325425148,3.20324444770813
232,-0.015209632925689,-0.141474261879921,1.03573727607727,37.8581924438477,26.3159618377686,5.41507863998413,1.63577127456665,-0.718180179595947,0.304933935403824,0.858397960662842,0.064719773828983,3.33738851547241
233,0.155880853533745,0.030301550403237,0.841158807277679,26.9156169891357,23.6202125549316,4.31025218963623,1.63338279724121,-0.711952567100525,0.306476563215256,0.528202593326569,0.038773220032454,3.4011549949646
234,0.042326807975769,0.117341279983521,0.800676941871643,14.2024059295654,18.4173450469971,3.34107947349548,1.63117921352386,-0.712027549743652,0.307117849588394,0.742656528949737,-0.033368218690157,3.4141309261322
235,0.080654010176659,-0.044605642557144,0.894895136356354,3.03339099884033,14.6644277572632,4.15180349349976,1.6318598985672,-0.712214291095733,0.302766472101212,0.862278997898102,-0.30282187461853,3.47230505943298
236,-0.051722221076489,-0.1403638869524,0.981215834617615,-4.50818538665772,8.25715160369873,2.88547801971436,1.63027155399323,-0.712192177772522,0.302896440029144,0.848938763141632,-0.360762387514114,3.49385643005371
237,0.142611175775528,0.010580389760435,0.921300411224365,-11.4548940658569,2.6870801448822,1.80681872367859,1.62896287441254,-0.71161562204361,0.303010821342468,0.72043514251709,-0.355827659368515,3.51495218276978
238,0.180460005998611,0.056492045521736,0.807676613330841,-13.5724592208862,-6.16792821884155,1.23405277729034,1.62871491909027,-0.71163272857666,0.298473954200745,0.631783485412598,-0.338263690471649,3.53327035903931
239,-0.032090324908495,0.089099861681461,1.04030287265778,-15.7775449752808,-9.06411552429199,1.55069518089294,1.62758183479309,-0.710552155971527,0.298059374094009,0.386101752519608,-0.239179611206055,3.54365634918213
240,-0.173861399292946,-0.025543246418238,1.15400230884552,-10.3162183761597,-18.7111473083496,1.20917475223541,1.62652432918549,-0.710551202297211,0.297704249620438,0.274840116500854,-0.064101412892342,3.55880045890808
241,-0.032880622893572,0.006371257361025,0.998976826667785,-7.66457939147949,-21.914400100708,1.89091157913208,1.62611031532288,-0.712336659431458,0.298711150884628,0.378235071897507,0.129077300429344,3.58113884925842
242,-0.011134278029204,-0.042241405695677,0.891198039054871,-6.72008037567139,-18.2418918609619,1.97422909736633,1.62548017501831,-0.71195524930954,0.298523366451263,0.282241106033325,0.310926079750061,3.59479188919067
243,-0.000115563059808,0.001012297114357,0.966981053352356,-8.07051658630371,-13.5289125442505,2.08599710464478,1.62532675266266,-0.71309095621109,0.298282653093338,0.324400961399078,0.417585581541061,3.61239981651306
244,0.06872171908617,-0.002924571279436,0.981924593448639,-8.24439430236816,-9.27200126647949,2.33259201049805,1.62465023994446,-0.71253776550293,0.297951519489288,0.183182179927826,0.521739423274994,3.63414025306702
245,-0.014649985358119,-0.007483630441129,0.997613310813904,-6.01114559173584,-6.98547887802124,3.12733602523804,1.62495899200439,-0.713618338108063,0.295610010623932,0.211529925465584,0.501972734928131,3.65009140968323
246,0.130976542830467,0.009465216659009,0.997126162052154,-0.577973544597626,-4.12095737457275,4.04914712905884,1.62470901012421,-0.715104579925537,0.295150101184845,0.310210436582565,0.514454424381256,3.68075680732727
247,0.070271342992783,0.004112634807825,1.02094662189484,6.73778295516968,-0.263433694839478,5.83460760116577,1.62462282180786,-0.715539216995239,0.294727385044098,0.371125251054764,0.479873657226563,3.7281711101532
248,-0.027660774067044,0.039576753973961,1.03074860572815,17.7063407897949,1.63411116600037,6.13197422027588,1.6233617067337,-0.715852558612824,0.292278289794922,0.509376406669617,0.560326337814331,3.79668474197388
249,0.077834367752075,-0.072672888636589,1.09297645092011,20.5765953063965,3.29400181770325,7.93392848968506,1.62189745903015,-0.71747750043869,0.291628926992416,0.84411084651947,0.656763553619385,3.86590099334717
250,0.15258252620697,-0.0330032967031,1.03747797012329,20.3900623321533,5.35531520843506,9.21309852600098,1.6220144033432,-0.719109416007996,0.291178345680237,1.16620767116547,0.50349885225296,3.92816543579102
251,-0.011647652834654,0.071957983076573,0.942454755306244,18.7492694854736,6.67624664306641,9.19715881347656,1.62121999263763,-0.718773782253265,0.28981214761734,1.27684080600739,0.467907577753067,4.03687000274658
252,-0.055115260183811,0.010111810639501,1.02507817745209,11.3446378707886,6.11506700515747,8.05631160736084,1.62085020542145,-0.719731688499451,0.28925496339798,1.45832455158234,0.357996106147766,4.10980987548828
253,0.093651637434959,0.122021786868572,0.989969670772552,1.27791619300842,5.14668798446655,7.57320880889893,1.62002205848694,-0.71990305185318,0.288713246583939,1.46638906002045,0.333614706993103,4.20408344268799
254,0.078163765370846,0.021619081497192,1.03708875179291,-10.6109886169434,-0.650682806968689,5.9514274597168,1.62001824378967,-0.719348251819611,0.28838849067688,1.2958288192749,0.233601316809654,4.26506280899048
255,-0.012380382977426,-0.013988342136145,1.05674517154694,-20.4701137542725,-3.89814066886902,5.41801452636719,1.61947739124298,-0.71860659122467,0.285671055316925,1.01969766616821,0.300747066736221,4.34379148483276
256,0.067820876836777,-0.01910263299942,1.04368233680725,-26.5690746307373,-9.3385534286499,4.34363651275635,1.61839783191681,-0.719866931438446,0.285000532865524,0.858855545520783,0.456260442733765,4.39885854721069
257,0.129683926701546,-0.017146646976471,1.07692492008209,-29.6897525787354,-15.8402557373047,4.21233320236206,1.61737048625946,-0.722535192966461,0.284329503774643,0.760709345340729,0.59897792339325,4.41560745239258
258,-0.01959852129221,-0.006538050249219,1.05755305290222,-25.7763671875,-18.2693824768066,4.35592555999756,1.61628103256226,-0.72265237569809,0.279779523611069,0.416386038064957,0.899144113063812,4.50592231750488
259,0.069967024028301,0.108825601637363,1.17216312885284,-20.5961894989014,-17.2517356872559,4.17852735519409,1.6161322593689,-0.723537266254425,0.279396712779999,0.179989889264107,0.915465593338013,4.49704599380493
260,0.083235815167427,-0.034930877387524,1.08470892906189,-12.5012092590332,-13.7325382232666,3.25047492980957,1.6154465675354,-0.723964035511017,0.278955638408661,0.004477619193494,1.06430685520172,4.53819990158081
261,0.03736811876297,0.010539918206632,1.00797927379608,-7.57783031463623,-7.82387161254883,1.85452616214752,1.61472046375275,-0.725712478160858,0.276910036802292,0.011516384780407,1.1112220287323,4.52934217453003
262,-0.041680365800858,-0.002595969708636,1.06250643730164,-4.68933057785034,-2.83115482330322,1.3281741142273,1.61391067504883,-0.72684246301651,0.276486605405807,-0.011487243697047,1.14668381214142,4.53640365600586
263,0.081181019544602,-0.274132519960403,1.00232672691345,-3.05624794960022,2.03036379814148,0.080150760710239,1.61390829086304,-0.7273930311203,0.276250541210175,-0.059766538441181,1.04826927185059,4.52929782867432
264,0.098514668643475,-0.059311829507351,1.09030139446259,-3.39977526664734,7.00550365447998,0.046506185084581,1.61420297622681,-0.727855503559112,0.276072233915329,-0.127036452293396,0.871724665164948,4.52065944671631
265,0.16024261713028,0.017473869025707,1.08539807796478,-5.05448055267334,10.0740547180176,0.037230972200632,1.61382341384888,-0.72746354341507,0.278361290693283,-0.27316427230835,0.808068156242371,4.55717134475708
266,-0.010551392100751,0.047770779579878,1.08349883556366,-2.42670464515686,9.71830749511719,-0.626094043254852,1.61323916912079,-0.729044020175934,0.278346210718155,-0.212403371930122,0.677621304988861,4.52158355712891
267,0.07697681337595,0.056949604302645,1.02361154556274,-1.74979519844055,10.1722640991211,-0.448138624429703,1.61148166656494,-0.730683326721191,0.278267383575439,-0.147432819008827,0.685918211936951,4.49618291854858
268,0.179012477397919,-0.038684062659741,1.0722222328186,-2.08018231391907,8.31326293945313,-0.644158065319061,1.60859990119934,-0.731431782245636,0.274891793727875,-0.168357983231545,0.862100601196289,4.49697637557983
269,0.197814598679543,-0.005104916170239,1.04604756832123,-4.24864673614502,5.55688095092773,-0.180568277835846,1.60878396034241,-0.732763230800629,0.274972081184387,-0.137105911970139,0.657355904579163,4.47543573379517
270,0.182699471712112,-0.004584133625031,1.06417047977448,-6.33811187744141,0.704974293708801,-0.835682272911072,1.60812830924988,-0.733948409557343,0.274958491325378,-0.156245097517967,0.607227504253387,4.4580602645874
271,0.042664341628552,-0.002578680403531,1.06936419010162,-13.7076797485352,-5.44827175140381,-0.509920179843903,1.60861241817474,-0.732914865016937,0.278920710086822,-0.442018687725067,0.591376721858978,4.51140785217285
272,0.392215073108673,0.021450804546476,1.04364705085754,-15.4750881195068,-11.5194416046143,-1.30780684947968,1.60621786117554,-0.736703753471375,0.279117554426193,-0.330225378274918,0.74005126953125,4.4130802154541
273,0.155031278729439,-0.058876745402813,1.10140597820282,-14.7427682876587,-19.949556350708,-2.43349814414978,1.60600054264069,-0.735343813896179,0.279647886753082,-0.710303008556366,0.920756101608276,4.45527601242065
274,0.166489914059639,0.12165080010891,1.01609885692596,-12.6136856079102,-22.7053966522217,-4.19894790649414,1.60470449924469,-0.735908687114716,0.280008614063263,-0.87711888551712,1.1824905872345,4.4219856262207
275,-0.033444806933403,0.071156807243824,1.05234777927399,-8.11703777313232,-23.3499011993408,-6.65507793426514,1.60247075557709,-0.738535284996033,0.279249280691147,-0.806246697902679,1.47455787658691,4.30339574813843
276,0.019161425530911,0.013803248293698,1.05470895767212,-2.17089867591858,-18.2540836334229,-7.51963138580322,1.60136795043945,-0.739053189754486,0.279640883207321,-0.871133744716644,1.69489252567291,4.2410044670105
277,0.039106443524361,-0.054691448807716,1.08076477050781,1.44215857982636,-10.5599670410156,-9.56931018829346,1.60233974456787,-0.740335404872894,0.280471861362457,-0.786941885948181,1.6358460187912,4.17347812652588
278,-0.08128298074007,0.097769223153591,1.08190739154816,2.36074423789978,0.908054172992706,-10.0311899185181,1.60216772556305,-0.741969466209412,0.280189692974091,-0.668402135372162,1.56885719299316,4.05783891677856
279,0.038084827363491,-0.012715475633741,1.02486622333527,-2.26179003715515,9.78197765350342,-9.47287464141846,1.60181331634521,-0.741731345653534,0.280879080295563,-0.778755128383637,1.50330078601837,3.9934356212616
280,0.188148275017738,-0.064839392900467,0.959381997585297,-8.44086837768555,15.2540645599365,-9.55415439605713,1.60201108455658,-0.741070747375488,0.281527578830719,-0.96147894859314,1.35904145240784,3.96071076393127
281,0.052061371505261,0.039327349513769,0.991499543190002,-15.8860082626343,21.6589183807373,-8.58512306213379,1.60032796859741,-0.743388891220093,0.282517284154892,-0.973593771457672,1.14593374729157,3.80768418312073
282,-0.002116317627952,-0.025490161031485,1.04528820514679,-21.3591747283936,19.5782108306885,-7.60524797439575,1.59992980957031,-0.741822242736816,0.283120423555374,-1.37474822998047,1.02188467979431,3.80245876312256
283,0.019922265782952,0.086990661919117,0.937107026576996,-26.4994621276855,12.8253927230835,-7.00010490417481,1.59845042228699,-0.742494761943817,0.283637046813965,-1.62489724159241,0.933710932731628,3.71734213829041
284,-0.046315550804138,0.058386251330376,0.885402023792267,-26.0952110290527,6.59904432296753,-5.32045221328735,1.60057270526886,-0.741459608078003,0.284261763095856,-1.96881926059723,0.722301840782166,3.76545023918152
285,-0.07806520909071,0.062821641564369,0.919693171977997,-16.2372608184814,1.79926812648773,-5.03506898880005,1.59762179851532,-0.74454391002655,0.284692496061325,-1.93828892707825,0.755035519599915,3.60372543334961
286,-0.079974077641964,0.114411696791649,0.956961214542389,-5.30011177062988,-2.7371563911438,-3.97969889640808,1.59736263751984,-0.74457848072052,0.284954786300659,-2.05107450485229,0.754487097263336,3.59039497375488
287,-0.098818719387055,0.206716239452362,1.0317873954773,5.79137849807739,-9.49643802642822,-4.30074977874756,1.59635233879089,-0.746992707252502,0.285321474075317,-1.85790872573853,0.792403519153595,3.51057434082031
288,0.078255482017994,0.143782988190651,1.06743443012238,14.1119861602783,-12.6921672821045,-3.60103344917297,1.59459686279297,-0.747875154018402,0.286143243312836,-1.74761867523193,0.939630568027496,3.44568085670471
289,-0.008908340707421,0.080372966825962,1.13995862007141,22.1063461303711,-11.9756174087524,-3.47742915153503,1.59319424629211,-0.747637093067169,0.286580264568329,-1.65371406078339,1.08625304698944,3.41942095756531
290,-0.043139439076185,0.011562590487301,1.15640985965729,26.2699928283691,-4.87829732894897,-3.5771336555481,1.5948041677475,-0.745515882968903,0.287345200777054,-1.60435974597931,1.04383528232574,3.50522136688232
291,-0.070138148963451,0.099787473678589,1.2378454208374,27.5775413513184,2.24782729148865,-5.44425868988037,1.59556996822357,-0.746862351894379,0.291992902755737,-1.21291351318359,0.894285380840302,3.49640345573425
292,0.229220628738403,0.122174479067326,1.12132060527802,23.4698715209961,9.80101203918457,-4.94127225875855,1.59336948394775,-0.74724954366684,0.293219834566116,-1.01870667934418,0.860113978385925,3.40513968467712
293,-0.008130030706525,0.032133691012859,0.994077801704407,16.0277786254883,13.3993539810181,-4.70601224899292,1.59267365932465,-0.748432695865631,0.294560521841049,-0.772004425525665,0.705658555030823,3.35089635848999
294,0.185653269290924,0.112968251109123,1.07279109954834,5.33142137527466,15.7931146621704,-3.24700975418091,1.58923578262329,-0.747146844863892,0.294061303138733,-0.927358746528626,0.708516716957092,3.26385426521301
295,0.127079412341118,0.037690531462431,1.11461877822876,-5.03725051879883,14.6815671920776,-1.67604970932007,1.59156668186188,-0.746031880378723,0.295652657747269,-1.0250346660614,0.387786507606506,3.36418795585632
296,0.043536227196455,0.022783737629652,1.11247491836548,-11.7909383773804,11.4598846435547,-1.94784283638001,1.58823549747467,-0.747315883636475,0.297151476144791,-1.09196484088898,0.349579095840454,3.26141953468323
297,-0.060850068926811,0.067451931536198,1.14930176734924,-13.7021646499634,5.68607997894287,-2.26227641105652,1.58960735797882,-0.745715737342835,0.298957318067551,-1.3519880771637,0.154019743204117,3.32917785644531
298,0.039093922823668,-0.129230201244354,1.19049036502838,-14.3734750747681,3.46265697479248,-3.44656085968018,1.58504700660706,-0.747104406356812,0.29891049861908,-1.44308018684387,0.298941493034363,3.17930912971497
299,0.182233944535255,-0.033532310277224,1.0355236530304,-10.4273624420166,-0.142581403255463,-2.19392323493958,1.5830020904541,-0.746632695198059,0.300678819417953,-1.60209167003632,0.375284463167191,3.13641333580017
300,0.076399616897106,-0.121519967913628,0.877469480037689,-6.04499340057373,-1.68399608135223,-3.07038259506226,1.5836683511734,-0.746701776981354,0.302631467580795,-1.59307968616486,0.323324054479599,3.16167259216309
301,0.063247963786125,-0.158259347081184,0.835059523582459,0.349656164646149,-6.92291307449341,-3.54659056663513,1.57915902137756,-0.749087691307068,0.303606301546097,-1.43434238433838,0.553564608097076,3.01443433761597
302,-0.01343075465411,0.202097281813622,0.933512449264526,2.80606698989868,-6.85944080352783,-2.67576336860657,1.57988750934601,-0.748650670051575,0.305241644382477,-1.44040989875793,0.502804040908814,3.04782843589783
303,-0.016349093988538,0.088461123406887,0.982978045940399,6.07839250564575,-3.39381146430969,-4.50120210647583,1.57941138744354,-0.748629510402679,0.306763380765915,-1.40534031391144,0.486859858036041,3.03019642829895
304,0.084297701716423,0.051017586141825,1.05571627616882,9.4349250793457,-1.94270133972168,-4.52003622055054,1.5786280632019,-0.749164342880249,0.307307600975037,-1.2694890499115,0.50109726190567,2.99363565444946
305,0.229329809546471,-0.003535686526448,1.05452525615692,14.1240377426147,-0.040719848126173,-4.18546199798584,1.57480549812317,-0.75082129240036,0.308667927980423,-1.03070044517517,0.644077718257904,2.86432218551636
306,0.060824848711491,-0.088113851845265,0.946220517158508,13.4771413803101,1.86971509456635,-2.77644062042236,1.5746636390686,-0.750802099704742,0.310232520103455,-0.887500524520874,0.581977009773254,2.87151622772217
307,0.028094161301851,-0.034114204347134,0.799808025360107,12.8951930999756,3.63341403007507,-2.34743881225586,1.57224380970001,-0.751317501068115,0.305025428533554,-0.765049576759338,0.613869547843933,2.81245279312134
308,0.004732870496809,0.039136562496424,0.822692275047302,9.48868942260742,9.19247150421143,-1.15706694126129,1.56928324699402,-0.75081479549408,0.305715322494507,-0.752687633037567,0.575446248054504,2.75818133354187
309,-0.104060396552086,-0.150725692510605,0.962486326694488,7.24267578125,12.4341201782227,-0.282218605279922,1.57090377807617,-0.750896513462067,0.306644797325134,-0.626305401325226,0.279876351356506,2.83196425437927
310,-0.033876225352287,-0.014549813233316,1.0762677192688,5.80503177642822,13.8112297058105,-1.18668520450592,1.56938099861145,-0.75138658285141,0.307327091693878,-0.542880773544312,0.164207085967064,2.81429505348206
311,0.100549608469009,0.029793588444591,1.03474080562592,5.15941572189331,15.9759635925293,-1.39387285709381,1.56961739063263,-0.752416253089905,0.306221961975098,-0.388971567153931,-0.067747183144093,2.82865309715271
312,0.01732262969017,-0.053394269198179,0.855371534824371,2.53625774383545,17.4243144989014,-1.69690120220184,1.56725597381592,-0.752979457378387,0.306761056184769,-0.334757745265961,-0.172298714518547,2.78273391723633
313,0.003157690400258,-0.052146814763546,0.91080230474472,4.9533314704895,16.6634960174561,-1.88534653186798,1.56748867034912,-0.75233918428421,0.307366549968719,-0.348248302936554,-0.437954068183899,2.79440307617187
314,0.002826348645613,-0.04009509831667,0.942170023918152,4.88910579681397,17.7928428649902,-2.44430112838745,1.56438565254211,-0.751458466053009,0.303095370531082,-0.43682736158371,-0.50302529335022,2.72515630722046
315,0.024196494370699,0.036076705902815,0.92713463306427,6.88774490356445,17.6946239471436,-2.25964212417603,1.56364238262177,-0.75186562538147,0.303185760974884,-0.331196486949921,-0.717738091945648,2.71197438240051
316,0.046784777194262,-0.153576269745827,1.01389729976654,5.88795900344849,21.4197750091553,-2.53266978263855,1.56186306476593,-0.751624047756195,0.303207129240036,-0.301375448703766,-0.891229808330536,2.67214298248291
317,0.100014381110668,-0.141712039709091,0.915517330169678,6.21006679534912,17.4639091491699,-2.59819531440735,1.56314444541931,-0.752002358436585,0.299723625183106,-0.168102204799652,-1.17265546321869,2.6927375793457
318,0.221989259123802,0.059470068663359,0.74186897277832,10.0029258728027,13.4071702957153,-3.36635637283325,1.55952060222626,-0.752158522605896,0.299330353736877,-0.094692215323448,-1.13426184654236,2.62465858459473
319,0.12250467389822,0.053014989942312,0.88492077589035,6.61361646652222,9.26096820831299,-1.72678434848785,1.55709409713745,-0.752114176750183,0.298739671707153,-0.042002473026514,-1.17910933494568,2.58345532417297
320,0.000169611739693,-0.00873395986855,0.950714886188507,7.2166953086853,3.60662174224854,-1.17731750011444,1.55725598335266,-0.752428889274597,0.298189252614975,0.064034029841423,-1.3215035200119,2.59782147407532
321,0.002944366075099,0.040817279368639,1.07258832454681,5.55562496185303,-0.576015472412109,-1.12372028827667,1.55492186546326,-0.752870380878449,0.297788560390472,0.144159346818924,-1.20702612400055,2.59156441688538
322,0.052276525646448,-0.02273091673851,0.997620224952698,1.39460611343384,-2.74327850341797,-0.628055930137634,1.55493700504303,-0.752973139286041,0.297311902046204,0.176617026329041,-1.28766930103302,2.59442448616028
323,0.03027980029583,-0.068713881075382,0.95094221830368,-0.115132674574852,-4.54265737533569,0.181983292102814,1.55309271812439,-0.753101587295532,0.296690613031387,0.178895801305771,-1.17870402336121,2.59379601478577
324,0.029047528281808,-0.028202790766955,0.980893313884735,-3.11944174766541,-5.59778022766113,1.87799119949341,1.55249881744385,-0.752995193004608,0.295138835906982,0.126235023140907,-1.19549965858459,2.59465646743774
325,0.111881114542484,0.06497149169445,0.865707039833069,-3.9232337474823,-3.86467289924622,1.92537903785706,1.55045759677887,-0.752891540527344,0.294348746538162,0.066958546638489,-1.0725382566452,2.60184502601624
326,-0.003077558940277,-0.003132370766252,0.89548659324646,-8.08991432189941,-1.95124065876007,4.11947917938232,1.54911386966705,-0.752594113349915,0.29351669549942,-0.050956819206476,-1.09285247325897,2.60324192047119
327,-0.047648217529059,-0.028495028614998,0.917736053466797,-7.19771575927734,-2.16592812538147,4.43265151977539,1.54714858531952,-0.752250969409943,0.289831340312958,-0.178693294525146,-1.02688050270081,2.62418580055237
328,0.014695793390274,0.083463542163372,0.957532167434692,-5.96972370147705,1.37071287631989,5.40576028823853,1.54548466205597,-0.751954078674316,0.288595944643021,-0.284371882677078,-1.03425562381744,2.6519079208374
329,0.389405786991119,-0.069841653108597,1.00975489616394,-5.39783048629761,3.77612709999084,6.1862940788269,1.54693734645844,-0.752724885940552,0.287603944540024,-0.224657475948334,-1.2321914434433,2.77733302116394
330,0.136697322130203,-0.05891739949584,1.02633368968964,-5.9950966835022,3.81036972999573,6.25505208969116,1.54539096355438,-0.752497613430023,0.286400854587555,-0.3224256336689,-1.25608515739441,2.8176167011261
331,0.319678992033005,0.033387959003449,1.04575097560883,-6.03705787658691,2.92952799797058,6.81499767303467,1.54380834102631,-0.752289116382599,0.286174207925797,-0.401538223028183,-1.25088167190552,2.86873126029968
332,0.03343341127038,0.03055320866406,1.07451319694519,-4.43730449676514,-2.84706878662109,6.3275785446167,1.54299521446228,-0.752651453018189,0.285115212202072,-0.367389917373657,-1.15856802463532,2.983238697052
333,0.017405204474926,0.046317644417286,1.08115673065186,-0.493054866790772,-8.92876815795898,6.05039930343628,1.54419136047363,-0.753666400909424,0.284238159656525,-0.208351194858551,-1.12286496162415,3.1482105255127
334,0.069037571549416,0.023345479741693,1.0470095872879,6.61705493927002,-15.3178081512451,5.08746290206909,1.54306435585022,-0.754053831100464,0.283180743455887,-0.114312693476677,-0.903540372848511,3.23672699928284
335,-0.0014606222976,-0.031521275639534,1.09372448921204,9.5884428024292,-21.445743560791,5.85805082321167,1.54152226448059,-0.754102766513824,0.282319456338882,-0.042727928608656,-0.658739387989044,3.27985548973083
336,0.10591071844101,-0.017811900004745,1.08111751079559,13.5590772628784,-25.3341732025146,6.29382705688477,1.54120647907257,-0.754310667514801,0.281679451465607,0.093517027795315,-0.478406429290772,3.33584690093994
337,-0.003597038099542,-0.190584346652031,1.10272836685181,12.4820861816406,-24.9478244781494,8.85146617889404,1.54047501087189,-0.754986584186554,0.284116059541702,0.313351631164551,-0.116837181150913,3.48350977897644
338,0.117989890277386,-0.044440776109696,1.09595692157745,9.27466869354248,-23.6910266876221,8.6684513092041,1.53980886936188,-0.755063593387604,0.283866792917252,0.378500491380692,0.040502771735191,3.53754782676697
339,0.166222408413887,-0.138778552412987,1.05157136917114,7.00935411453247,-19.5477638244629,9.10414123535156,1.53923273086548,-0.755125045776367,0.283702164888382,0.439278990030289,0.178855150938034,3.59769558906555
340,0.163698017597199,-0.331377476453781,1.10307908058167,-0.82657253742218,-12.6656303405762,8.9115629196167,1.53784132003784,-0.755322217941284,0.283287584781647,0.474321871995926,0.430212795734406,3.70945978164673
341,0.151365906000137,-0.161456108093262,1.06279981136322,-5.62316226959229,-7.44731616973877,8.17347812652588,1.5373626947403,-0.75584077835083,0.28447026014328,0.482185274362564,0.509892225265503,3.80585551261902
342,0.094238132238388,0.003747147973627,1.08178114891052,-10.986213684082,-2.86949467658997,7.44311094284058,1.53716433048248,-0.756103813648224,0.284669190645218,0.37434595823288,0.407070726156235,3.8405613899231
343,0.059899270534515,-0.062824696302414,1.10086691379547,-14.62158203125,0.928610146045685,6.79469060897827,1.53755664825439,-0.75741583108902,0.284767091274261,0.383300244808197,0.331171095371246,3.9260573387146
344,0.010427775792778,-0.040803730487824,1.14901661872864,-15.3970966339111,-0.06268122792244,6.0727653503418,1.53619253635407,-0.756714701652527,0.281934320926666,0.101516366004944,0.345016568899155,3.95533037185669
345,-0.061536502093077,-0.08512631803751,1.20618379116058,-14.9406223297119,-2.26119661331177,5.18795824050903,1.53530156612396,-0.757141470909119,0.282048940658569,-0.018735952675343,0.412974148988724,4.03169965744019
346,0.088717803359032,0.071545258164406,1.12200248241425,-12.443118095398,-6.51279973983765,4.64088201522827,1.53416574001312,-0.757639348506928,0.282265275716782,-0.110758826136589,0.571857571601868,4.11471080780029
347,0.066745817661285,-0.144375801086426,1.15861618518829,-7.92864179611206,-8.64542770385742,2.56206893920898,1.53348100185394,-0.757838904857636,0.282032787799835,-0.215761482715607,0.599341869354248,4.12951231002808
348,0.181324571371079,-0.113629408180714,1.04883420467377,-1.36488246917725,-9.26943588256836,1.1870596408844,1.5328825712204,-0.758458733558655,0.282624930143356,-0.201753661036491,0.660709321498871,4.1389012336731
349,0.214852288365364,-0.213403075933456,1.05045413970947,0.087593540549278,-10.2351856231689,-0.078712925314903,1.53208518028259,-0.758572161197662,0.28324031829834,-0.213990181684494,0.773166596889496,4.1404824256897
350,0.066550470888615,-0.271966218948364,0.961382567882538,0.263554453849792,-9.43298530578613,-1.27685058116913,1.53085505962372,-0.758738279342651,0.284157067537308,-0.196769699454308,0.970713138580322,4.14303779602051
351,0.007110153790563,-0.147468045353889,0.98505836725235,-1.82759499549866,-8.42810916900635,-1.22071182727814,1.53002119064331,-0.759580552577972,0.284738153219223,-0.130517110228538,1.08098411560059,4.12707471847534
352,0.127995058894157,-0.005504317115992,1.01922678947449,-4.62827348709106,-7.42343854904175,-2.27506494522095,1.52939474582672,-0.760104835033417,0.285351753234863,-0.15411502122879,1.11219525337219,4.09589195251465
353,-0.06676559895277,0.122872717678547,0.985676109790802,-7.24373340606689,-2.08535385131836,-2.86382269859314,1.5290093421936,-0.759767472743988,0.286000221967697,-0.287153601646423,1.09799349308014,4.06484746932983
354,-0.011561091057956,-0.011064357124269,0.930125594139099,-13.5901231765747,7.471923828125,-2.71278882026672,1.52777969837189,-0.760548055171967,0.289240062236786,-0.358020842075348,1.09360492229462,4.03607130050659
355,0.11785077303648,-0.045473881065846,0.876584827899933,-12.7682228088379,13.6969375610352,-2.621337890625,1.52787661552429,-0.759756743907928,0.289905279874802,-0.583621442317963,0.879259347915649,4.02265357971191
356,-0.029484637081623,-0.106487318873405,0.890819787979126,-11.9768667221069,17.1679134368896,-1.72508454322815,1.52662873268127,-0.760517776012421,0.290311634540558,-0.6494500041008,0.757489442825317,3.99404048919678
357,-0.071868725121021,0.111670598387718,0.870872974395752,-11.4181900024414,13.7581157684326,-2.7891788482666,1.52556109428406,-0.760539829730987,0.289765775203705,-0.786495447158814,0.650742650032043,3.97276306152344
358,-0.079340979456902,0.140364035964012,0.952410697937012,-11.9601163864136,10.7733297348022,-2.97008204460144,1.52380561828613,-0.762064397335053,0.289913326501846,-0.802240431308746,0.56439346075058,3.91147589683533
359,-0.090045608580113,0.196611240506172,1.06623387336731,-10.5275039672852,6.27587747573853,-2.34380316734314,1.52150177955627,-0.761325240135193,0.289858311414719,-1.03487110137939,0.655161917209625,3.91947102546692
360,0.024676911532879,0.102725334465504,1.24391043186188,-9.62945747375488,-0.059502623975277,-2.8675708770752,1.52220189571381,-0.760325789451599,0.290642023086548,-1.25703287124634,0.46807074546814,3.92449975013733
361,0.103576019406319,0.000440744363004,1.10767185688019,-10.3135623931885,-4.26144552230835,-2.70807790756226,1.52144730091095,-0.760419189929962,0.291175872087479,-1.35099959373474,0.458995580673218,3.8985321521759
362,0.023778479546309,-0.160371363162994,1.07909488677979,-5.85936737060547,-7.33389806747437,-2.67222666740417,1.51978409290314,-0.76157945394516,0.291847258806229,-1.31737053394318,0.566723525524139,3.84423518180847
363,0.066976636648178,-0.05503636598587,0.929031848907471,-4.27082681655884,-8.90606880187988,-1.01810562610626,1.51850259304047,-0.761404573917389,0.292408436536789,-1.38360249996185,0.694637179374695,3.83856391906738
364,0.096584416925907,-0.022461764514446,0.860255539417267,2.63294696807861,-7.26119661331177,-0.518230497837067,1.51778781414032,-0.762204170227051,0.295026451349258,-1.29561698436737,0.721045970916748,3.82825374603271
365,0.003929127007723,-0.002616790123284,0.99000734090805,5.77711534500122,-2.48133325576782,-0.205282092094421,1.51587963104248,-0.762735307216644,0.295532315969467,-1.21854090690613,0.805668592453003,3.80725383758545
366,-0.00453873584047,0.098574697971344,1.03889346122742,6.69811820983887,1.56135129928589,0.62212085723877,1.51547062397003,-0.762361526489258,0.296149343252182,-1.20075619220734,0.755735695362091,3.83349585533142
367,-0.042373344302178,0.02801057882607,1.11546444892883,4.2035493850708,2.10789942741394,-0.174952924251556,1.51519882678986,-0.761754751205444,0.300641626119614,-1.21301376819611,0.683096706867218,3.86182713508606
368,0.058472312986851,0.01425074506551,1.01082289218903,2.63859748840332,1.3049396276474,-0.221409320831299,1.51593792438507,-0.761015236377716,0.301689863204956,-1.22393679618835,0.559051692485809,3.9049277305603
369,0.005071733612567,-0.174523994326592,1.09715187549591,2.06232929229736,-1.06822335720062,-1.29889965057373,1.51084220409393,-0.761777400970459,0.302487760782242,-1.17583954334259,0.830666065216064,3.80041003227234
370,0.022937159985304,-0.031413160264492,0.99585348367691,1.72887480258942,-3.87545251846313,-1.0785745382309,1.50937056541443,-0.762770116329193,0.306497931480408,-1.04894864559174,0.862127423286438,3.76730298995972
371,0.040968239307404,-0.079531610012055,0.919709861278534,2.9549765586853,-4.27617979049683,-1.24226176738739,1.50941777229309,-0.762787759304047,0.307802408933639,-1.00463140010834,0.82031124830246,3.78217339515686
372,0.005259343888611,0.05456468090415,0.865701675415039,3.29589629173279,-1.65358412265778,-1.47123634815216,1.5078364610672,-0.761639535427094,0.308802753686905,-1.07824325561523,0.896345436573029,3.78562998771667
373,-0.049895975738764,-0.029308442026377,1.01004874706268,7.17178773880005,3.69743585586548,-1.39268815517426,1.50900423526764,-0.761002123355866,0.307565927505493,-1.04193663597107,0.707269728183746,3.82845902442932
374,-0.034904833883047,0.113389886915684,1.14281666278839,6.52142238616943,7.63305139541626,-1.7885514497757,1.50543630123138,-0.761821866035461,0.308400928974152,-0.927134931087494,0.769635081291199,3.74388742446899
375,0.026682108640671,-0.020983602851629,1.12765562534332,5.64449071884155,11.2031726837158,-1.08895123004913,1.50532627105713,-0.760473132133484,0.309511095285416,-0.972434818744659,0.611879706382751,3.77455997467041
376,0.116685844957829,0.029932560399175,0.912558853626251,4.62454271316528,12.9920825958252,-0.991674304008484,1.50486266613007,-0.759979784488678,0.310659557580948,-0.930075109004974,0.453457832336426,3.78583145141602
377,0.049523301422596,0.017466409131885,0.950864434242248,5.81934356689453,12.5739135742188,-1.07020270824432,1.50433897972107,-0.759470343589783,0.313973516225815,-0.880136609077454,0.280898809432983,3.79078030586243
378,-0.009936620481312,-0.014096331782639,0.977235496044159,4.26928043365479,10.2975778579712,-0.974230587482452,1.50124776363373,-0.760200500488281,0.315035581588745,-0.763490378856659,0.270478397607803,3.72727036476135
379,-0.098554484546185,0.11087291687727,1.07844936847687,4.74562168121338,9.32038688659668,-0.786469340324402,1.50161600112915,-0.760274052619934,0.316310405731201,-0.684906482696533,0.045255448669195,3.73894619941711
380,-0.016232777386904,0.005636140238494,1.00537717342377,4.52535963058472,7.58156871795654,-1.05773401260376,1.49909389019012,-0.757609307765961,0.316216737031937,-0.879764676094055,0.109358504414558,3.74049019813538
381,0.026316000148654,-0.027277451008558,0.952873468399048,5.19660806655884,3.97188115119934,-1.4988876581192,1.49575650691986,-0.757496893405914,0.317183703184128,-0.817931950092316,0.181920796632767,3.68729496002197
382,-0.010356158949435,-0.088467352092266,0.905441462993622,6.13726234436035,1.2398134469986,-1.22852194309235,1.49639225006104,-0.757807075977325,0.318596631288528,-0.647484719753265,-0.015602600760758,3.70036268234253
383,0.012598757632077,0.035184442996979,1.03306984901428,7.37673425674439,-2.42338991165161,-2.5996675491333,1.49458253383636,-0.757596254348755,0.319012671709061,-0.573241412639618,0.034472301602364,3.66557502746582
384,0.044325586408377,0.031100705265999,1.02879321575165,12.5624732971191,-2.3349757194519,-3.99635934829712,1.49472713470459,-0.758290827274323,0.320150583982468,-0.348255306482315,-0.046104196459055,3.63938403129578
385,0.062632590532303,0.00333258905448,0.872552812099457,17.3388118743896,-4.10847187042236,-4.22387981414795,1.49268078804016,-0.755535006523132,0.321061015129089,-0.422800689935684,0.07340057939291,3.60423803329468
386,0.112388357520103,0.136621162295342,0.829978287220001,16.1727333068848,-4.95691156387329,-5.33396244049072,1.49186766147614,-0.75582355260849,0.320998996496201,-0.40324142575264,0.136222943663597,3.59070754051208
387,0.004532242659479,-0.063554674386978,1.00437045097351,15.0925731658936,-5.37202453613281,-4.92157316207886,1.48897659778595,-0.755531489849091,0.322478264570236,-0.236295506358147,0.303955137729645,3.51678490638733
388,0.038447998464108,-0.067711517214775,0.998962461948395,14.0861282348633,-4.96694374084473,-5.2415337562561,1.48855173587799,-0.754934728145599,0.32338473200798,-0.087054088711739,0.261836975812912,3.47998595237732
389,-0.000962512393016,-0.036277435719967,0.855595290660858,14.8342590332031,-0.593710541725159,-5.94167804718018,1.48626983165741,-0.754809200763702,0.324946671724319,0.294380366802216,0.297377347946167,3.3698456287384
390,-0.094471752643585,-0.018188983201981,0.8646479845047,16.4637718200684,3.96643614768982,-6.69302654266357,1.48602283000946,-0.753318667411804,0.326316893100738,0.14517292380333,0.312960386276245,3.37449502944946
391,0.022438453510404,0.269411534070969,0.941755592823029,13.3925628662109,13.3794183731079,-7.19816398620606,1.4843475818634,-0.752752542495728,0.326954960823059,0.295259714126587,0.313742786645889,3.3094744682312
392,-0.026842046529055,0.022650627419353,1.03819572925568,15.2423858642578,18.086051940918,-7.90392684936523,1.48320686817169,-0.751556217670441,0.327554553747177,0.365711599588394,0.160767689347267,3.24145150184631
393,0.105628117918968,-0.21082279086113,0.963750779628754,15.658519744873,20.6204948425293,-7.6713662147522,1.48193609714508,-0.751819550991058,0.330751538276672,0.614242732524872,-0.0544758066535,3.16202664375305
394,0.11986880749464,-0.03870252892375,0.839754939079285,15.9474716186523,21.2581195831299,-7.87336254119873,1.48081743717194,-0.750673294067383,0.331478357315063,0.71290135383606,-0.276252746582031,3.08567786216736
395,-0.022525608539581,0.039934135973454,0.910112380981445,10.2252225875855,22.7815113067627,-6.88226175308228,1.47999441623688,-0.751430213451386,0.332120895385742,1.00748813152313,-0.539442181587219,3.00720477104187
396,0.024178916588426,0.011535192839801,0.938641250133514,7.58228921890259,21.1783218383789,-6.99702167510986,1.47743141651154,-0.750566780567169,0.332523584365845,1.07615602016449,-0.581709861755371,2.98166704177856
397,0.167809873819351,-0.031070260331035,0.917279243469238,5.56682109832764,16.7769069671631,-6.12103748321533,1.47718775272369,-0.751060247421265,0.330887615680695,1.24164867401123,-0.963482439517975,2.88077569007874
398,0.067750342190266,-0.026556078344584,0.89720094203949,0.70971953868866,4.92136955261231,-7.17565631866455,1.47522866725922,-0.750249922275543,0.331074357032776,1.25378859043121,-0.993627905845642,2.8577241897583
399,0.021930268034339,0.011715856380761,0.936582386493683,-3.89295196533203,-2.33009266853333,-7.19692802429199,1.47356593608856,-0.749966025352478,0.331140130758285,1.27544927597046,-0.967819392681122,2.82913136482239
400,-0.059334717690945,0.200172811746597,0.901197373867035,-8.05241870880127,-10.409252166748,-9.13891220092773,1.472092628479,-0.749541223049164,0.3300621509552,1.22354793548584,-0.966568410396576,2.75662994384766
401,0.017004936933518,0.225470170378685,0.95522153377533,-10.3557777404785,-13.4171457290649,-9.22905921936035,1.47039389610291,-0.748875260353088,0.329919308423996,1.10427296161652,-0.840432584285736,2.67418956756592
402,0.030506666749716,0.044699899852276,0.948761582374573,-11.2091503143311,-18.6014976501465,-8.88975334167481,1.46913146972656,-0.748869061470032,0.32973638176918,1.03044211864471,-0.714971542358398,2.5862729549408
403,0.005283165257424,-0.222067728638649,0.929216861724854,-8.53278636932373,-21.5731792449951,-9.37609958648682,1.46773135662079,-0.748438656330108,0.327077478170395,0.892643392086029,-0.59407240152359,2.45071768760681
404,0.046078734099865,0.094699874520302,0.793041348457336,-5.70704221725464,-18.2945919036865,-8.39632225036621,1.46581470966339,-0.747308492660522,0.326595902442932,0.714415192604065,-0.361518234014511,2.32889652252197
405,-0.097441084682942,0.128343835473061,0.861195921897888,-6.42087554931641,-11.0442028045654,-7.66863059997559,1.46443164348602,-0.746882855892181,0.326071947813034,0.630079507827759,-0.214211627840996,2.21225237846375
406,-0.103186316788197,0.105235330760479,0.943377256393433,-3.29561948776245,-1.91772389411926,-7.28950166702271,1.46398508548737,-0.747876465320587,0.325468778610229,0.709524214267731,-0.145297825336456,2.16685676574707
407,0.046631276607514,0.02283563837409,1.03416073322296,2.20676445960999,6.15215682983398,-6.44759607315064,1.46320176124573,-0.748573124408722,0.32652822136879,0.770945250988007,-0.142944812774658,2.11739468574524
408,-0.101597800850868,-0.194996148347855,1.10578954219818,8.76115989685059,11.6290521621704,-5.38822174072266,1.46139943599701,-0.747527062892914,0.325779795646667,0.686398684978485,-0.187531650066376,2.03521728515625
409,0.095345586538315,-0.033773515373468,1.1174031496048,14.3672027587891,13.8942108154297,-5.76915073394775,1.46015250682831,-0.747531890869141,0.324982643127441,0.811070621013641,-0.194708436727524,2.05214715003967
410,0.080712728202343,-0.067839838564396,1.08114242553711,18.1668491363525,17.715274810791,-6.22307825088501,1.45971357822418,-0.748937964439392,0.324394702911377,1.09932279586792,-0.493145823478699,1.94532489776611
411,0.018574679270387,-0.097358398139477,1.00660490989685,19.6794357299805,17.8509502410889,-5.50682020187378,1.45825171470642,-0.748598337173462,0.323788553476334,1.27066481113434,-0.498389333486557,1.97015368938446
412,-0.00168899144046,-0.055265076458454,0.983705043792725,15.6324729919434,18.1049289703369,-5.12094116210938,1.45707416534424,-0.748961925506592,0.323234021663666,1.51392829418182,-0.619161605834961,1.9607424736023
413,-0.018606372177601,-0.109069563448429,0.891573965549469,8.10618686676025,13.6674566268921,-3.56188821792603,1.45568585395813,-0.749169766902924,0.323153167963028,1.6698921918869,-0.885624825954437,1.86501359939575
414,-0.011064918711782,-0.063266679644585,0.899646043777466,-3.63924336433411,4.95114707946777,-2.70044255256653,1.45351409912109,-0.747716248035431,0.32270410656929,1.59280431270599,-0.961953222751617,1.81935679912567
415,0.123026549816132,0.00101738574449,0.85516482591629,-12.7465696334839,-2.75651597976685,-2.8957257270813,1.45222091674805,-0.748105525970459,0.32217001914978,1.5876898765564,-1.13377547264099,1.72677099704742
416,0.037528693675995,-0.082936652004719,0.784837424755096,-19.5834159851074,-8.48412990570068,-2.65211582183838,1.45154809951782,-0.74793803691864,0.316355973482132,1.51768493652344,-0.880767107009888,1.87403285503387
417,0.027504835277796,-0.023090871050954,0.9324831366539,-23.6367511749268,-9.44955539703369,-3.00979828834534,1.44999051094055,-0.747880160808563,0.315143644809723,1.31249964237213,-0.812331140041351,1.8360390663147
418,-0.076891258358955,0.07326777279377,0.877297699451447,-22.938060760498,-8.59462261199951,-3.3996307849884,1.44895148277283,-0.748738288879395,0.31387522816658,1.13843739032745,-0.801285982131958,1.78576397895813
419,-0.259183913469315,0.139997765421867,0.943835735321045,-19.0602397918701,-5.25035762786865,-2.42676520347595,1.4474014043808,-0.748930037021637,0.312567979097366,0.880162119865418,-0.811353921890259,1.68296658992767
420,-0.064330033957958,0.431344449520111,0.975761890411377,-13.0832538604736,0.161582261323929,-1.55495917797089,1.4463062286377,-0.7492316365242,0.312044590711594,0.685167849063873,-0.73682302236557,1.68642687797546
421,0.029475020244718,0.244431972503662,1.03863537311554,-6.80812883377075,6.73098468780518,0.441218882799149,1.44544756412506,-0.750003278255463,0.310596853494644,0.591015458106995,-0.774850368499756,1.67955470085144
422,-0.002309861127287,0.366574227809906,1.08520340919495,-0.384354531764984,11.1226539611816,1.24900829792023,1.44333457946777,-0.749240458011627,0.309189587831497,0.367076605558395,-0.913422167301178,1.59307813644409
423,0.019616106525064,0.242956057190895,1.11108326911926,4.4410719871521,15.3121356964111,3.54466199874878,1.44260609149933,-0.749823033809662,0.30648535490036,0.414149582386017,-0.965228736400604,1.67570114135742
424,0.064622074365616,0.166960641741753,1.20446789264679,6.63715505599976,16.8559589385986,4.39379978179932,1.44057726860046,-0.750541150569916,0.303956925868988,0.517970383167267,-1.4067211151123,1.70573770999908
425,0.081192940473557,0.056909866631031,1.05635285377502,6.23434257507324,11.2812423706055,6.077392578125,1.44039618968964,-0.750477731227875,0.30388343334198,0.542972266674042,-1.21506702899933,1.810182929039
426,-0.005418830085546,0.043421398848295,1.19118845462799,1.22507703304291,4.24158143997192,6.48211288452148,1.43945908546448,-0.750869333744049,0.302943676710129,0.592597186565399,-1.52645075321198,1.77135801315308
427,0.011200144886971,0.078691117465496,1.22866678237915,-6.04963350296021,-3.84646725654602,8.26240253448486,1.4379620552063,-0.750706732273102,0.302007555961609,0.559928596019745,-1.54728150367737,1.82949876785278
428,-0.041266046464443,0.017199320718646,1.24251770973206,-9.26737308502197,-13.7806606292725,9.57348442077637,1.43695986270905,-0.750895261764526,0.301279187202454,0.503838777542114,-1.56156158447266,1.8839545249939
429,0.078831523656845,0.038591247051954,1.23740088939667,-10.4102907180786,-22.3803367614746,9.95897388458252,1.43602681159973,-0.751045644283295,0.300785392522812,0.39643606543541,-1.4852374792099,1.94731068611145
430,0.040432583540678,-0.018793035298586,1.24168658256531,-13.3165254592896,-30.5635223388672,11.5036106109619,1.43523967266083,-0.751500010490418,0.299548327922821,0.341777563095093,-1.16942131519318,2.10916090011597
431,0.027278298512101,-0.056099090725184,1.25694561004639,-12.365364074707,-36.8779983520508,10.1776456832886,1.43382596969605,-0.751514732837677,0.299370467662811,0.188573434948921,-0.81003737449646,2.22448444366455
432,0.056500010192394,0.04412679001689,1.16173851490021,-11.3234434127808,-35.580753326416,10.4641046524048,1.43459677696228,-0.752805233001709,0.299678862094879,0.195319265127182,-0.59592068195343,2.34725618362427
433,-0.026427598670125,-0.076031602919102,1.21600639820099,-8.37215042114258,-29.3757362365723,9.68132400512695,1.43335664272308,-0.752956211566925,0.299287050962448,0.056369174271822,-0.178093150258064,2.45019221305847
434,0.074913665652275,0.004119156859815,1.09479415416718,-4.41308116912842,-20.990758895874,10.2209100723267,1.4331259727478,-0.753962159156799,0.299723505973816,0.053899388760328,0.12759605050087,2.58845067024231
435,0.153234675526619,-0.174159005284309,1.10008609294891,-3.09191346168518,-9.11529445648193,11.7836017608643,1.43184292316437,-0.75391298532486,0.300329118967056,-0.052779618650675,0.361250311136246,2.66745519638062
436,0.102134935557842,-0.183822393417358,1.00871026515961,-2.40680289268494,1.80380344390869,10.9654245376587,1.43158042430878,-0.75453132390976,0.300768285989761,-0.052368327975273,0.406374156475067,2.78084421157837
437,0.075271643698216,-0.182308584451675,0.957569658756256,-5.52091789245606,8.24474239349365,11.3579168319702,1.43151795864105,-0.754995167255402,0.301618933677673,-0.06580600887537,0.312342435121536,2.87802386283875
438,0.132784232497215,-0.068739131093025,1.00340712070465,-8.51212501525879,15.4226942062378,10.2516021728516,1.43119287490845,-0.755915641784668,0.302354216575623,-0.055546522140503,0.231554478406906,3.0003547668457
439,-0.109241314232349,0.078910179436207,0.885573327541351,-14.2012138366699,16.1104602813721,10.686695098877,1.42921280860901,-0.756105124950409,0.300699591636658,-0.175218239426613,0.231781631708145,3.11200189590454
440,0.056112866848707,0.019551541656256,0.977492928504944,-19.0932159423828,16.0505142211914,9.99777698516846,1.42952966690063,-0.757071316242218,0.301308780908585,-0.24802953004837,-0.045974370092154,3.21685385704041
441,0.088661380112171,-0.010130676440895,1.01819932460785,-21.284969329834,13.4203786849976,8.74152183532715,1.42878925800324,-0.756569862365723,0.301796138286591,-0.553184270858765,-0.238505631685257,3.30463528633118
442,0.0358298830688,-0.021394902840257,1.02784276008606,-22.8575077056885,3.24374651908875,8.37537097930908,1.42727446556091,-0.757307946681976,0.302209794521332,-0.726227700710297,-0.273147702217102,3.39790177345276
443,0.172482743859291,-0.014722559601069,0.947512030601501,-18.8424873352051,-11.8619432449341,7.47045707702637,1.42522203922272,-0.757555246353149,0.300603151321411,-0.97166359424591,-0.196086466312408,3.47519254684448
444,0.014761520549655,-0.128335148096085,0.831757605075836,-11.3046941757202,-22.3886013031006,6.87978887557983,1.42383575439453,-0.758327126502991,0.300868541002274,-1.12307631969452,-0.039138521999121,3.54996728897095
445,-0.034141674637795,0.061712794005871,0.962131798267364,-5.29997634887695,-30.1486892700195,5.65988492965698,1.42275846004486,-0.759270370006561,0.301060110330582,-1.18309962749481,0.188748136162758,3.62057089805603
446,-0.108512096107006,0.007595504634082,1.12334227561951,1.23111486434937,-31.0523777008057,6.1725549697876,1.42040050029755,-0.759426891803741,0.297878682613373,-1.30257654190063,0.598005533218384,3.66674757003784
447,0.050584279000759,-0.083531238138676,1.04475843906403,8.88454341888428,-26.2023372650146,6.45601511001587,1.42144501209259,-0.759738206863403,0.298055946826935,-1.27835392951965,0.74489551782608,3.77836227416992
448,0.02942362613976,-0.169281780719757,0.990468204021454,15.9364738464355,-18.2233734130859,6.22561120986939,1.42072641849518,-0.760671555995941,0.298099249601364,-1.12971472740173,0.994697034358978,3.84872674942017
449,0.024233082309365,-0.017775759100914,0.844541192054749,19.4720592498779,-9.37449741363525,4.41338586807251,1.41972315311432,-0.761342287063599,0.298042982816696,-0.953837692737579,1.19243764877319,3.91059350967407
450,-0.112281940877438,0.160612791776657,0.893998503684998,14.6459932327271,5.49558830261231,4.87473106384277,1.41889882087708,-0.762514472007751,0.297998458147049,-0.682094931602478,1.26840138435364,3.94820094108582
451,-0.001079256064259,0.032559297978878,0.967697858810425,5.33315134048462,17.7005500793457,4.23122358322144,1.42179155349731,-0.761132717132568,0.298283040523529,-0.692259848117828,1.00858330726624,4.12399196624756
452,0.08092799782753,0.087011605501175,1.07167053222656,-3.91317176818848,19.2571182250977,3.45403385162354,1.42024075984955,-0.760382533073425,0.298044294118881,-0.766597628593445,0.924028575420379,4.16851568222046
453,0.053280882537365,-0.025620855391026,1.16856849193573,-11.0226335525513,18.6847305297852,3.25266170501709,1.42036807537079,-0.761132836341858,0.295124411582947,-0.729916155338287,0.63777232170105,4.21065759658814
454,0.083213061094284,0.002778046065941,1.04444241523743,-17.1389541625977,10.7403564453125,3.92080640792847,1.41806089878082,-0.760448038578033,0.294812709093094,-0.960009157657623,0.590289533138275,4.22695732116699
455,0.0164591409266,-0.012289342470467,0.931188404560089,-19.4049034118652,5.1900110244751,4.47191095352173,1.41943836212158,-0.75976699590683,0.294778645038605,-1.1871155500412,0.341712892055511,4.33930110931397
456,0.074656546115875,0.034055754542351,0.854937016963959,-17.5921001434326,0.392503648996353,4.27244806289673,1.41751182079315,-0.760223388671875,0.293028175830841,-1.35082149505615,0.356136322021484,4.34352493286133
457,0.07242538779974,-0.1147136464715,1.05832397937775,-8.21524715423584,-3.07836198806763,3.73954558372498,1.41588616371155,-0.75966876745224,0.292609095573425,-1.60021281242371,0.424594938755035,4.38032150268555
458,-0.020196821540594,-0.044072363525629,1.11167120933533,7.78918552398682,-6.3917121887207,1.57862985134125,1.41343927383423,-0.760165333747864,0.292185842990875,-1.63983380794525,0.530968904495239,4.36449480056763
459,0.020271608605981,-0.008924552239478,1.04366266727448,20.1071262359619,-4.49436378479004,2.26990723609924,1.41281151771545,-0.761894524097443,0.293392986059189,-1.35065126419067,0.502805650234222,4.35868263244629
460,0.158996522426605,-0.04260066524148,1.02875173091888,29.7321929931641,-3.08471941947937,3.3668646812439,1.41080176830292,-0.763190627098084,0.293210536241531,-1.01050877571106,0.572864234447479,4.33235263824463
461,0.067178569734097,-0.029289644211531,1.01853454113007,33.4773826599121,5.03689193725586,3.35578656196594,1.41199469566345,-0.763049721717835,0.293253719806671,-0.714035272598267,0.468448758125305,4.43793439865112
462,0.032222609966993,-0.023991666734219,1.02153980731964,34.9417266845703,9.97330379486084,3.64388394355774,1.41008532047272,-0.762720942497253,0.293171495199203,-0.443958282470703,0.50211364030838,4.45250558853149
463,0.113109283149242,0.100914634764194,1.01246821880341,30.3757438659668,17.4478206634521,4.42134857177734,1.40822124481201,-0.762017130851746,0.295823603868484,-0.202013373374939,0.474053412675858,4.48377513885498
464,0.024148577824235,-0.069291152060032,1.10997104644775,24.8451042175293,22.3400573730469,5.28295993804932,1.41128146648407,-0.761739253997803,0.296199440956116,0.118179395794868,0.012740475125611,4.64833974838257
465,0.049132343381643,0.033630941063166,1.08516299724579,16.8474674224854,21.4954414367676,5.24354124069214,1.40895390510559,-0.760482549667358,0.29650816321373,0.189169198274612,-0.061459112912417,4.69010210037231
466,0.069373540580273,-0.171894565224648,1.02012598514557,8.51648902893066,21.2607727050781,7.11653280258179,1.40934503078461,-0.760385751724243,0.295856714248657,0.371298521757126,-0.389090150594711,4.77795124053955
467,0.05226593837142,-0.025236014276743,0.920580387115478,-1.03611063957214,14.2545175552368,7.312180519104,1.40707325935364,-0.76005357503891,0.296147763729095,0.403613388538361,-0.471207469701767,4.82449293136597
468,0.032588597387076,-0.078817412257195,0.900327205657959,-9.02445411682129,9.14456176757813,6.35633277893066,1.40644145011902,-0.759684264659882,0.296413004398346,0.365162163972855,-0.638820767402649,4.90573501586914
469,-0.017397858202458,0.091716676950455,0.984482884407043,-11.236533164978,-1.44228899478912,6.04328775405884,1.40417349338532,-0.760525286197662,0.295009195804596,0.373224586248398,-0.599110722541809,4.93968915939331
470,0.002032845746726,-0.024120150133967,1.12899553775787,-13.3702669143677,-9.01860427856445,3.97383642196655,1.40404629707336,-0.759768426418304,0.295086950063705,0.186577960848808,-0.669190049171448,5.01063871383667
471,0.032947305589914,0.037831950932741,1.04200005531311,-14.6074142456055,-16.0957317352295,4.24072170257568,1.40219497680664,-0.759794116020203,0.295113414525986,0.061975333839655,-0.479864776134491,5.04206895828247
472,0.048383802175522,-0.023278523236513,0.918936371803284,-13.1865720748901,-20.3066291809082,3.61895704269409,1.40028393268585,-0.759901165962219,0.294126838445663,-0.06440631300211,-0.21622171998024,5.07560253143311
473,-0.025489842519164,-0.013661770150066,0.976301431655884,-13.8329954147339,-22.2198333740234,3.41208648681641,1.4002777338028,-0.759692013263702,0.294311970472336,-0.200137719511986,-0.125234484672546,5.11818552017212
474,0.014463382773101,-0.104069925844669,1.05765151977539,-15.7674999237061,-17.7520599365234,4.67959070205689,1.39937651157379,-0.760751664638519,0.294385969638824,-0.204905390739441,0.097071833908558,5.15738487243652
475,0.047044601291418,-0.024190980941057,1.06170272827148,-13.7111186981201,-17.0364360809326,3.15443968772888,1.3980815410614,-0.760108590126038,0.294373720884323,-0.445092380046845,0.297830939292908,5.19942283630371
476,-0.001864743884653,0.045548878610134,1.04125010967255,-8.16279029846191,-10.2729434967041,1.59671771526337,1.39765226840973,-0.760726749897003,0.296498835086823,-0.496004462242126,0.399122446775436,5.23603773117065
477,-0.02983471006155,0.012873722240329,0.917509496212006,1.95837533473969,3.34127807617187,1.26199007034302,1.39765965938568,-0.760532259941101,0.29687362909317,-0.585628807544708,0.386570274829864,5.26191139221191
478,0.098307386040688,0.061792202293873,0.954322278499603,10.9275350570679,11.4224166870117,0.60641360282898,1.39771032333374,-0.76087749004364,0.29723334312439,-0.504114091396332,0.253825843334198,5.27772378921509
479,0.026499504223466,-0.039286807179451,1.04946660995483,13.0458393096924,11.613564491272,1.82223796844482,1.39799559116364,-0.760985374450684,0.295336455106735,-0.373989939689636,0.039686556905508,5.29272651672363
480,0.037972312420607,-0.083879247307777,1.0007541179657,11.4981536865234,6.85346460342407,3.45742249488831,1.39539885520935,-0.760152220726013,0.295346170663834,-0.370474427938461,0.115116938948631,5.29928541183472
481,-0.052062347531319,-0.013207972049713,0.982424974441528,5.21068620681763,2.14995121955872,5.99516105651856,1.39473283290863,-0.760654270648956,0.295478105545044,-0.191189378499985,0.033171210438013,5.33558797836304
482,-0.020933898165822,0.15259662270546,0.943025827407837,0.768410623073578,-1.81960785388947,6.5850191116333,1.39278149604797,-0.758825361728668,0.295960783958435,-0.363281458616257,0.126386910676956,5.39671039581299
483,0.101984739303589,-0.013929232954979,1.10588455200195,-3.72049689292908,-9.02048397064209,7.81619691848755,1.39256715774536,-0.758551836013794,0.296122968196869,-0.357554316520691,0.072124756872654,5.47129154205322
484,0.091049961745739,-0.106182456016541,1.03978765010834,-2.26252174377441,-16.1232986450195,6.91603088378906,1.3914794921875,-0.758616447448731,0.296249210834503,-0.358186036348343,0.181189641356468,5.54503393173218
485,0.042131971567869,-0.000862127693836,0.933465957641602,-2.88214492797852,-20.4780769348145,7.07116460800171,1.38980066776276,-0.758771359920502,0.2963607609272,-0.343120753765106,0.422318994998932,5.60970973968506
486,-0.047122832387686,0.135337755084038,1.0410315990448,-3.81663370132446,-18.5560874938965,6.75423240661621,1.38882851600647,-0.758493840694428,0.294348925352097,-0.384474873542786,0.632504642009735,5.68349504470825
487,-0.012892868369818,0.141126215457916,1.06410944461823,-2.10936188697815,-20.0041580200195,7.41643619537354,1.3885372877121,-0.758214235305786,0.294478178024292,-0.419073164463043,0.752456426620483,5.76048946380615
488,0.137235105037689,-0.138226374983788,1.07781088352203,3.90888833999634,-20.754373550415,7.43920183181763,1.38683819770813,-0.758552670478821,0.294470071792603,-0.385040432214737,1.02222645282745,5.82104253768921
489,0.007280554622412,-0.097568809986115,0.957244992256165,13.456805229187,-14.3739862442017,5.75826072692871,1.38530790805817,-0.759507119655609,0.291585654020309,-0.22125244140625,1.26643764972687,5.86552381515503
490,-0.02644064463675,0.051477912813425,0.878436326980591,19.8958950042725,-1.28960680961609,5.71232652664185,1.38513720035553,-0.759194731712341,0.291700035333633,-0.09911359846592,1.31714355945587,5.93429279327393
491,-0.009329419583082,-0.050459779798985,1.05342185497284,25.0918827056885,10.1507616043091,5.25192356109619,1.38528156280518,-0.758437812328339,0.291786521673203,0.037769477814436,1.22265791893005,6.01781272888184
492,-0.024227358400822,-0.029619716107845,1.11151647567749,26.3957233428955,21.7489814758301,4.469970703125,1.38569605350494,-0.758609592914581,0.29059898853302,0.336399972438812,0.945749640464783,6.06122875213623
493,0.0893998965621,-0.039700228720903,1.05336940288544,23.4871444702148,23.2939586639404,4.26232719421387,1.38403677940369,-0.758903861045837,0.290440499782562,0.625683665275574,0.813317775726318,6.09186553955078
494,0.017038229852915,-0.083343669772148,0.942366778850555,14.865608215332,22.9684963226318,4.02475023269653,1.38210773468018,-0.758924543857574,0.290312945842743,0.845965683460236,0.70879191160202,6.14003753662109
495,0.028871055692434,0.00257708854042,0.850341796875,4.85969638824463,18.7430076599121,3.52834534645081,1.38226675987244,-0.757523536682129,0.29046106338501,0.845232546329498,0.403303772211075,6.22701930999756
496,-0.026914974674583,0.074461847543717,1.03919899463654,-6.64481639862061,14.4152011871338,2.55704545974731,1.38058590888977,-0.756675660610199,0.291822969913483,0.797379553318024,0.375547081232071,6.31176233291626
497,-0.097086109220982,0.088928632438183,1.08905351161957,-15.2875757217407,3.44839215278625,1.59698903560638,1.38073265552521,-0.755791902542114,0.291898280382156,0.660062491893768,0.066557385027409,6.32677173614502
498,-0.072055324912071,0.038189172744751,1.03662073612213,-18.0083522796631,-6.27958345413208,0.997560381889343,1.37902975082397,-0.756230890750885,0.291839718818665,0.569427251815796,0.135551750659943,6.33975124359131
499,0.022242804989219,-0.051078848540783,0.940916061401367,-17.6091728210449,-13.0463457107544,0.072129458189011,1.3778680562973,-0.75603586435318,0.296079128980637,0.389143109321594,0.195044904947281,6.34296989440918
500,-0.009288343600929,0.14342300593853,0.995111405849457,-18.3229274749756,-14.3310585021973,0.308913201093674,1.37646687030792,-0.756226241588593,0.296292513608932,0.250756055116653,0.386035174131393,6.34670400619507
501,0.023795774206519,0.006472412496805,1.131138920784,-10.4669580459595,-12.3414745330811,-0.778517544269562,1.37583327293396,-0.755344450473785,0.296539634466171,-0.001729186857119,0.471108913421631,6.35263252258301
502,0.114651300013065,-0.049949802458286,1.03990995883942,0.126642018556595,-11.1525354385376,-2.69172787666321,1.37420475482941,-0.756052911281586,0.296867460012436,-0.001814457704313,0.649498999118805,6.33691215515137
503,0.102542139589787,0.03143347427249,0.923730432987213,5.4685435295105,-5.62384700775147,-2.44562482833862,1.37313520908356,-0.756459355354309,0.297286242246628,0.058557216078043,0.716457545757294,6.29391622543335
504,-0.064001016318798,-0.021303702145815,0.948342859745026,7.0879397392273,6.76802062988281,-2.2928581237793,1.37194991111755,-0.756920576095581,0.297659665346146,0.174235716462135,0.753336429595947,6.25309276580811
505,0.006552942562848,0.086708217859268,1.02698683738709,9.49418163299561,12.4180965423584,-2.99325203895569,1.37120056152344,-0.756769418716431,0.298035621643066,0.23682564496994,0.631894528865814,6.22302961349487
506,0.111462108790874,-0.105059079825878,1.0875563621521,8.79588985443115,13.5139923095703,-3.76425528526306,1.37057816982269,-0.756193816661835,0.296252995729446,0.273991376161575,0.480907678604126,6.2015380859375
507,-0.003782011335716,0.004534592851996,0.974194645881653,6.71188497543335,14.4284200668335,-5.04133653640747,1.3686215877533,-0.756982445716858,0.296382039785385,0.449698239564896,0.466005593538284,6.16462278366089
508,-0.026523463428021,0.018707515671849,0.926505029201508,7.60278177261353,12.5010929107666,-4.71615123748779,1.36723780632019,-0.757520616054535,0.296592593193054,0.577279627323151,0.346887052059174,6.10768556594849
509,0.027833158150315,-0.056021876633167,0.989486634731293,6.70086526870728,12.8690052032471,-5.79483890533447,1.36665260791779,-0.756678521633148,0.299441456794739,0.555757701396942,0.138725578784943,6.06546974182129
510,0.057056162506342,0.041994377970696,1.10755944252014,3.44954895973206,7.33046579360962,-6.22693347930908,1.36552727222443,-0.757074534893036,0.299784809350967,0.666769087314606,-0.004575729370117,5.9998779296875
511,-0.03000215254724,-0.077156528830528,1.05058825016022,2.58435702323914,5.51413011550903,-7.18735074996948,1.36331558227539,-0.757585227489471,0.300002127885818,0.743384182453156,0.132286563515663,5.98638534545898
512,0.01205587387085,-0.007837151177228,0.939174950122833,-1.83460485935211,3.17284512519836,-7.41057252883911,1.36274409294128,-0.757598519325256,0.298734039068222,0.76467627286911,-0.072770781815052,5.87890577316284
513,0.017947589978576,0.013633836060762,0.958012759685516,-7.03128337860107,4.6342511177063,-7.4057788848877,1.36106741428375,-0.757348418235779,0.298996984958649,0.686258137226105,0.018498728051782,5.84528017044067
514,0.005844796076417,0.01236065197736,1.05607092380524,-11.7935781478882,2.1641960144043,-7.52361440658569,1.35981714725494,-0.756751239299774,0.299303114414215,0.525016784667969,-0.030553201213479,5.77746772766113
515,0.016297422349453,-0.001122231711634,1.09336996078491,-12.3536396026611,-0.314316153526306,-9.21775627136231,1.35869741439819,-0.756190121173858,0.301770329475403,0.343185275793076,-0.109710402786732,5.68498182296753
516,0.033486481755972,-0.008072193711996,1.00301063060761,-14.762059211731,-6.26938438415527,-8.11832904815674,1.35784184932709,-0.758135914802551,0.302414357662201,0.456206828355789,-0.169973880052567,5.56492042541504
517,0.016694320365787,-0.023138614371419,0.917755722999573,-16.7159366607666,-6.79047012329102,-8.70124816894531,1.35665476322174,-0.757243037223816,0.30298775434494,0.181785419583321,-0.120714649558067,5.4806923866272
518,-0.013373625464738,0.001616998459212,0.960584104061127,-14.8237819671631,-6.99720478057861,-8.1975736618042,1.35543465614319,-0.756471157073975,0.303464561700821,-0.076040863990784,-0.063209287822247,5.39388799667358
519,-0.078631013631821,-0.108294613659382,1.10063683986664,-8.36427688598633,-1.71957457065582,-9.63079071044922,1.35499608516693,-0.757205784320831,0.301953673362732,-0.120191097259521,-0.10867677628994,5.28692150115967
520,0.004911450203508,-0.061686739325523,1.05375504493713,-1.30948781967163,2.03984069824219,-9.67777252197266,1.35268020629883,-0.758584320545197,0.302176356315613,-0.054794531315565,0.179179340600967,5.25015163421631
521,0.014139751903713,-0.075826615095139,0.917406558990478,8.40165996551514,5.20247411727905,-11.648645401001,1.35193562507629,-0.758997023105621,0.30273112654686,-0.030386483296752,0.07453365623951,5.135573387146
522,0.037305030971766,0.054160669445992,0.904761672019958,17.2487678527832,10.1785526275635,-12.9224138259888,1.35104954242706,-0.759287178516388,0.302465528249741,0.073254719376564,-0.032372456043959,5.01271438598633
523,-0.005534530617297,0.033267948776484,0.956952571868896,23.8220119476318,15.0818433761597,-13.2881011962891,1.35053026676178,-0.760693669319153,0.302803963422775,0.397181361913681,-0.212098851799965,4.88029289245606
524,0.023184459656477,0.001002342440188,0.989614725112915,21.5779972076416,16.6443881988525,-12.0797109603882,1.34876918792725,-0.760265707969666,0.303099989891052,0.534005284309387,-0.28414911031723,4.75314092636108
525,0.028871722519398,0.02251080609858,0.980085432529449,16.3329086303711,13.6163349151611,-13.2786865234375,1.34651684761047,-0.758193671703339,0.301680266857147,0.459332764148712,-0.351470142602921,4.6220440864563
526,0.005433193873614,-0.016509305685759,0.922868072986603,5.69223499298096,4.82703590393066,-12.7516403198242,1.3454624414444,-0.758774757385254,0.301835834980011,0.678822815418243,-0.484501153230667,4.49715757369995
527,0.044033132493496,-0.024394266307354,0.950589716434479,-5.52313470840454,0.540970981121063,-12.7366552352905,1.34328556060791,-0.758782625198364,0.301805764436722,0.69772344827652,-0.373180538415909,4.39723539352417
528,-0.074643455445767,-0.004236633889377,1.01589608192444,-16.0922203063965,-1.72136425971985,-11.2296562194824,1.34240996837616,-0.758004486560822,0.302076578140259,0.52411550283432,-0.532230198383331,4.22977066040039
529,-0.028819087892771,-0.050962787121534,0.999231576919556,-20.3183879852295,-5.83227109909058,-10.564528465271,1.34108972549438,-0.757698893547058,0.303113609552383,0.320177376270294,-0.522213637828827,4.10723638534546
530,0.010889679193497,0.005475212819874,1.11889338493347,-20.6804447174072,-5.88862657546997,-10.0416975021362,1.33981049060822,-0.757200539112091,0.303227066993713,0.058535978198052,-0.48874044418335,3.98279786109924
531,-0.029886422678828,-0.119820423424244,1.09583115577698,-20.4138774871826,-14.1391773223877,-7.40979099273682,1.33955836296082,-0.75994485616684,0.303534388542175,0.187558650970459,-0.358390599489212,3.96839785575867
532,0.073953412473202,0.011374216526747,0.928554773330688,-16.13649559021,-15.3814744949341,-6.47689867019653,1.33851647377014,-0.760372340679169,0.303527891635895,0.013058976270259,-0.233473643660545,3.89551877975464
533,0.104456506669521,-0.085131332278252,0.875389397144318,-12.4424848556519,-12.0056915283203,-3.48935484886169,1.33709621429443,-0.759645521640778,0.303813815116882,-0.264196842908859,-0.123247101902962,3.80426144599915
534,0.023260759189725,0.070420682430267,0.961862087249756,-5.4160475730896,-8.07319259643555,-3.7249608039856,1.33641088008881,-0.759865343570709,0.30404594540596,-0.370683342218399,-0.071191012859345,3.76421618461609
535,0.02755431830883,0.088481806218624,1.05894899368286,1.24385344982147,-2.47581553459167,-2.33291006088257,1.33529818058014,-0.759851336479187,0.306410372257233,-0.443332046270371,-0.017324863001704,3.7240195274353
536,0.028390413150191,0.118870109319687,1.07066369056702,8.32932662963867,1.0353330373764,-1.45436310768127,1.3339786529541,-0.760300219058991,0.306619644165039,-0.391992002725601,0.048100385814905,3.70991349220276
537,0.015081042423844,-0.127737522125244,1.07347190380096,13.1167507171631,4.68974590301514,-0.177993103861809,1.33381879329681,-0.761671245098114,0.307002902030945,-0.160557001829147,-0.025652904063463,3.72233891487122
538,0.023470863699913,-0.08117263764143,0.975760519504547,14.4362983703613,6.97728729248047,-0.483008205890656,1.33129703998566,-0.762088060379028,0.307122737169266,-0.025285292416811,0.096328943967819,3.72020101547241
539,0.065844781696797,-0.094476811587811,0.869818270206451,12.454122543335,14.0941734313965,-0.365842789411545,1.33143329620361,-0.762938022613525,0.307598680257797,0.194167226552963,-0.109610758721828,3.72609424591064
540,-0.035101257264614,0.053343009203673,0.90103542804718,5.88703155517578,15.0816984176636,-1.11326599121094,1.32959187030792,-0.763518869876862,0.307794213294983,0.325756549835205,-0.158495470881462,3.72503566741943
541,-0.037300903350115,0.09170825779438,1.02287375926971,-4.12107419967651,15.7099828720093,-0.539639413356781,1.32913446426392,-0.763530075550079,0.308100551366806,0.332220792770386,-0.411184847354889,3.7092010974884
542,-0.008472098037601,0.055933751165867,1.10106861591339,-11.0527925491333,13.032374382019,-1.4304621219635,1.32737910747528,-0.762413620948792,0.307531237602234,0.111172541975975,-0.55149507522583,3.67600417137146
543,0.039054565131664,-0.048328466713429,1.02648615837097,-12.35862159729,13.5278749465942,-4.30631160736084,1.32509088516235,-0.761965811252594,0.307632595300674,-0.076360985636711,-0.571463584899902,3.64518547058105
544,0.008894842118025,-0.032190434634686,0.985799610614777,-16.5496425628662,7.29488515853882,-3.47301054000854,1.32466626167297,-0.761751115322113,0.307915538549423,-0.235228657722473,-0.788511455059052,3.5956757068634
545,0.029040383175016,-0.007893044501543,0.934694230556488,-13.5935468673706,2.62985730171204,-4.46573066711426,1.3226922750473,-0.763012588024139,0.305717617273331,-0.269649177789688,-0.694957435131073,3.58887839317322
546,-0.053450707346201,-0.073926776647568,1.00504732131958,-11.7758989334106,-5.27966737747192,-4.91729784011841,1.32128858566284,-0.762217402458191,0.305752724409103,-0.522889375686646,-0.746329486370087,3.51802372932434
547,0.080614633858204,0.075574718415737,0.98872447013855,-6.53776216506958,-10.5499687194824,-4.85507154464722,1.32137286663055,-0.763836324214935,0.305884540081024,-0.459046632051468,-0.73703920841217,3.52076983451843
548,-0.080621689558029,-0.04753240942955,0.980338215827942,-0.310577601194382,-12.8389301300049,-4.65215539932251,1.31961464881897,-0.763780176639557,0.305571317672729,-0.558460474014282,-0.582192361354828,3.46044778823853
549,-0.000485858559841,0.092452488839626,0.914160490036011,1.08309972286224,-12.4401254653931,-4.08762979507446,1.31876540184021,-0.763847768306732,0.305585920810699,-0.57648491859436,-0.486607939004898,3.41475749015808
550,0.123929485678673,0.068258963525295,1.00567865371704,1.50266122817993,-7.69300746917725,-3.57337546348572,1.31846952438355,-0.763842701911926,0.305602490901947,-0.585799217224121,-0.456085801124573,3.38188767433166
