number,acc.x,acc.y,acc.z,gyro.x,gyro.y,gyro.z,stateEstimate.x,stateEstimate.y,stateEstimate.z,stabilizer.roll,stabilizer.pitch,stabilizer.yaw
0,-0.036672238260508,0.203716665506363,1.01597368717194,-7.02853345870972,22.6449165344238,14.3643350601196,1.80040717124939,0.446458846330643,0.279504895210266,2.0830705165863,2.43543815612793,-1.71941816806793
1,0.002976649207994,0.112144641578197,1.00532412528992,-19.6874313354492,34.6824760437012,15.2063999176025,1.80028188228607,0.44526332616806,0.279815524816513,1.96729946136475,2.15545105934143,-1.58274865150452
2,-0.096796356141567,0.059033520519734,1.03388822078705,-25.6900749206543,36.5173645019531,14.5671138763428,1.79935038089752,0.447292506694794,0.277791142463684,1.62462151050568,1.91795217990875,-1.31740355491638
3,-0.044096577912569,0.119278468191624,0.962683320045471,-27.3901958465576,42.2300148010254,12.9242210388184,1.79918253421783,0.444430381059647,0.277933210134506,1.46366810798645,1.48658668994904,-1.24231290817261
4,0.442558258771896,-0.076780050992966,0.888036370277405,-27.6204147338867,45.0331726074219,14.906457901001,1.798060297966,0.447960734367371,0.27834564447403,0.959832906723022,1.1378880739212,-0.937486946582794
5,0.352893143892288,-0.240693837404251,0.93637877702713,-26.2394161224365,42.908634185791,15.0763940811157,1.79825472831726,0.446724474430084,0.273726552724838,0.704081475734711,0.637823641300201,-0.809410214424133
6,0.168072685599327,-0.23241613805294,1.10885214805603,-19.5518951416016,41.4630355834961,12.4328746795654,1.79791808128357,0.443481177091599,0.273496448993683,0.629790127277374,0.217457637190819,-0.746113121509552
7,-0.128582507371902,-0.175553575158119,1.27036905288696,-15.2618551254272,30.4937057495117,12.915452003479,1.7965008020401,0.44383904337883,0.273508906364441,0.425059407949448,-0.00073605356738,-0.570253789424896
8,0.110476657748222,0.111351892352104,1.27266812324524,-6.73664331436157,18.516881942749,12.5253353118897,1.79609608650208,0.440390735864639,0.275406330823898,0.492646306753159,-0.294047564268112,-0.488692581653595
9,0.148346334695816,0.245950505137444,1.20404839515686,6.4155740737915,10.7954759597778,12.1829843521118,1.79538357257843,0.441172778606415,0.276051610708237,0.356542378664017,-0.392703235149384,-0.328066855669022
10,0.075929090380669,-0.12816795706749,1.11709916591644,19.4690322875977,-7.84389734268189,10.7995567321777,1.79436266422272,0.440175205469132,0.276786595582962,0.531436920166016,-0.323655694723129,-0.210666656494141
11,0.127037346363068,0.041518975049257,1.0829610824585,30.1748046875,-17.8467788696289,9.92640399932861,1.79331934452057,0.438565582036972,0.276706129312515,0.897918701171875,-0.103379376232624,-0.108294732868671
12,0.274635970592499,0.116733469069004,1.0858188867569,33.603645324707,-21.1033153533936,9.81936073303223,1.79315423965454,0.438260734081268,0.277709543704987,1.119997382164,0.054323710501194,-0.019598968327046
13,0.505074799060822,-0.010794656351209,0.971740901470184,33.6994590759277,-22.9586353302002,7.89646768569946,1.79371404647827,0.436703950166702,0.278605788946152,1.52732479572296,0.139983922243118,0.05108093097806
14,0.075886711478233,-0.041151326149702,0.964873194694519,27.3315715789795,-17.6233463287354,5.22394895553589,1.79327273368835,0.436104536056519,0.279645323753357,1.74616718292236,0.330603569746017,0.099762327969074
15,0.007544626947492,-0.105277396738529,1.03384077548981,10.7793426513672,-7.15586090087891,5.71720361709595,1.79327392578125,0.435043543577194,0.28029876947403,1.91778123378754,0.387476623058319,0.146106064319611
16,0.128614738583565,-0.033309806138277,1.07434165477753,-8.71256542205811,8.55582427978516,6.62390756607056,1.79342579841614,0.434538900852203,0.281472653150559,1.77302587032318,0.283867239952087,0.178858518600464
17,0.316910743713379,0.067084677517414,1.06570100784302,-15.6835746765137,23.0138645172119,5.99461936950684,1.79430830478668,0.433881044387817,0.282733350992203,1.4979944229126,-0.043217606842518,0.199252128601074
18,0.017984192818403,-0.111772418022156,0.966826319694519,-19.1369762420654,23.4040184020996,6.38303136825562,1.7919282913208,0.433375626802444,0.284188479185104,1.39324522018433,-0.009575652889907,0.326333284378052
19,-0.025483591482043,-0.102184407413006,0.872909307479858,-23.3122367858887,19.7856178283691,7.47108697891235,1.79269647598267,0.431824147701263,0.285257160663605,1.2086695432663,-0.384919255971909,0.389040291309357
20,0.072203241288662,-0.056480702012777,0.902031123638153,-20.5724315643311,21.3088474273682,6.77462673187256,1.79395222663879,0.430396676063538,0.28621107339859,0.964485287666321,-0.79201740026474,0.423812419176102
21,0.158891379833221,-0.208861917257309,0.931277751922607,-18.6685981750488,18.1693668365479,6.74108934402466,1.79308998584747,0.429568618535996,0.2860347032547,0.812092304229736,-0.884918928146362,0.527646005153656
22,0.144944339990616,-0.373543292284012,1.07431948184967,-23.1133365631104,6.2378625869751,5.26937532424927,1.79359292984009,0.428462833166122,0.286809921264648,0.520957827568054,-1.0827317237854,0.557678043842316
23,0.042747147381306,-0.198129341006279,1.18511617183685,-23.4820690155029,-2.57275366783142,4.89107656478882,1.7923504114151,0.427696943283081,0.287768065929413,0.300811976194382,-0.965920627117157,0.637275040149689
24,0.329066216945648,-0.051378946751356,1.1866340637207,-18.5931911468506,-1.3139134645462,3.66436815261841,1.79218351840973,0.426676571369171,0.288838058710098,0.063370995223522,-0.954042077064514,0.671450912952423
25,0.110987104475498,-0.063438273966312,1.15235340595245,-8.36605072021484,-4.90887498855591,3.86762142181396,1.79193663597107,0.425415694713593,0.29219788312912,0.05157620832324,-0.917638421058655,0.762136101722717
26,0.023072503507137,-0.13996659219265,1.07451713085175,1.0104672908783,-9.07859802246094,3.76587319374084,1.79154670238495,0.424299120903015,0.293790459632874,-0.032276518642902,-0.831611573696137,0.779092311859131
27,0.118225038051605,-0.023208251222968,1.02105963230133,13.32204246521,-11.2998657226563,1.68170094490051,1.79092133045197,0.423175394535065,0.295402437448502,0.095763824880123,-0.666400492191315,0.822134971618652
28,0.092484824359417,-0.095213457942009,1.03085768222809,21.0798931121826,-13.3853158950806,-0.114776857197285,1.79012191295624,0.42198383808136,0.297027260065079,0.293505638837814,-0.474512964487076,0.827651858329773
29,-0.054862510412932,-0.230041682720184,1.01900565624237,26.4625854492188,-19.8174495697021,0.625430047512054,1.79109334945679,0.420975476503372,0.298745155334473,0.594291746616364,-0.441293686628342,0.863685190677643
30,-0.084360338747501,-0.135677516460419,1.041619181633,24.802131652832,-19.7373828887939,1.82824563980103,1.79141855239868,0.419813960790634,0.300448209047317,0.905566275119782,-0.284704029560089,0.907065808773041
31,0.206285610795021,0.002500529168174,0.987596571445465,18.7858829498291,-15.3179178237915,1.68554377555847,1.7904999256134,0.418468773365021,0.300432950258255,1.12098407745361,-0.016082249581814,0.916188478469849
32,0.093596577644348,0.042227417230606,1.01240599155426,9.40082740783691,-9.60629367828369,1.23886024951935,1.79107785224915,0.417346596717835,0.302381753921509,1.11067414283752,0.007724682334811,0.864956259727478
33,-0.036786753684282,-0.129388183355331,1.00306558609009,-5.62025737762451,-7.47615671157837,-0.10051129758358,1.7905330657959,0.416229128837586,0.304312765598297,0.981666028499603,0.117916442453861,0.802708923816681
34,-0.083056144416332,0.0566825568676,0.973836600780487,-15.2559413909912,-5.22216033935547,-1.15569984912872,1.79017877578735,0.415198147296906,0.306121230125427,0.810796797275543,0.194162294268608,0.772443413734436
35,0.235925570130348,0.011733118444681,0.964504659175873,-23.2135620117187,-2.47872948646545,-0.715256631374359,1.79008030891418,0.414184629917145,0.308154761791229,0.59872442483902,0.216796875,0.756435096263886
36,0.102099783718586,0.104420602321625,1.0369166135788,-28.5366744995117,3.59951710700989,-1.12187016010284,1.78952479362488,0.41309404373169,0.309872478246689,0.322325438261032,0.24748694896698,0.754343688488007
37,0.027860309928656,0.013404815457761,0.924279451370239,-32.8563003540039,8.31758880615234,-1.34962093830109,1.78999221324921,0.412163764238358,0.311681419610977,-0.019631097093225,0.106778934597969,0.737836360931397
38,0.024609079584479,0.056285798549652,0.887378633022308,-33.3193168640137,14.2598218917847,-1.41191935539246,1.78954577445984,0.410684704780579,0.306556880474091,-0.158373832702637,0.012040629982948,0.794653475284576
39,-0.010532003827393,0.063764661550522,0.904075086116791,-26.7559337615967,15.591983795166,-2.31545376777649,1.78915572166443,0.409174650907517,0.307681322097778,-0.37141877412796,-0.121259570121765,0.800685942173004
40,0.031695298850536,-0.042940564453602,0.877829551696777,-21.0860862731934,14.6769752502441,-3.0899076461792,1.79008555412292,0.408267498016357,0.308829843997955,-0.644654035568237,-0.381387710571289,0.763185858726501
41,-0.068206682801247,0.025472791865468,0.92500114440918,-14.5511274337769,9.51799488067627,-2.74401521682739,1.78914546966553,0.407520979642868,0.304778128862381,-0.974555552005768,-0.406630158424377,0.662878751754761
42,0.02850304543972,0.004546428099275,0.903105080127716,-8.11274814605713,4.65966367721558,-1.70072031021118,1.78807866573334,0.405948102474213,0.305383443832397,-1.0221871137619,-0.37659415602684,0.645127713680267
43,0.05760994926095,0.052996121346951,0.899393081665039,0.174680382013321,0.697357058525085,-1.26429712772369,1.78829920291901,0.404612272977829,0.305872082710266,-0.940170466899872,-0.44231328368187,0.67808985710144
44,0.099551029503346,0.041206557303667,0.900984406471252,5.60688257217407,-1.36418473720551,-2.00330710411072,1.78752720355988,0.402996867895126,0.300852686166763,-0.821426331996918,-0.383930444717407,0.671509504318237
45,0.070585146546364,0.080600090324879,0.870723903179169,9.23354148864746,-1.73172736167908,-3.96981072425842,1.78669285774231,0.401378780603409,0.300830245018005,-0.712156057357788,-0.314027488231659,0.627635896205902
46,-0.037426084280014,0.048389721661806,0.943018913269043,9.94789886474609,-0.020230246707797,-4.01078844070435,1.78660917282105,0.400168746709824,0.300722807645798,-0.598068773746491,-0.318257600069046,0.603278040885925
47,0.08124902099371,-0.000815891951788,0.915248095989227,7.89658212661743,5.93635511398315,-3.15269351005554,1.786789894104,0.399162173271179,0.30055433511734,-0.515612185001373,-0.388616919517517,0.585108637809753
48,0.131170153617859,-0.052283044904471,1.08336293697357,6.47634267807007,10.2870206832886,-4.69855499267578,1.78738939762115,0.398730307817459,0.300926059484482,-0.539282023906708,-0.57863062620163,0.543220043182373
49,0.28962442278862,0.093549616634846,1.00028502941132,0.097930647432804,11.7537212371826,-6.00208520889282,1.78660118579865,0.397252470254898,0.300812929868698,-0.525506496429443,-0.622353792190552,0.454496622085571
50,0.054170340299606,-0.069226615130901,1.03541898727417,-6.01135540008545,17.3972682952881,-3.6671290397644,1.78782296180725,0.39726859331131,0.300719380378723,-0.616660177707672,-0.929553389549255,0.439050227403641
51,-0.045855794101954,-0.109706662595272,0.999351501464844,-6.56353425979614,13.1127805709839,-2.37085318565369,1.78716576099396,0.395236939191818,0.297538936138153,-0.513867616653442,-1.00501847267151,0.441235065460205
52,0.109850563108921,0.024692729115486,0.925926208496094,-12.6649160385132,17.4719161987305,-0.346560180187225,1.78664219379425,0.393942534923553,0.297265589237213,-0.650546729564667,-1.10808920860291,0.392936319112778
53,-0.015011410228908,0.01801335811615,0.968016982078552,-18.6974239349365,14.8311357498169,1.1549323797226,1.78607404232025,0.392850548028946,0.296993881464005,-0.916871309280396,-1.2271181344986,0.34051576256752
54,0.033944085240364,0.059005960822106,0.973277926445007,-19.8509845733643,10.5057582855225,1.65576410293579,1.78529644012451,0.391236245632172,0.293019264936447,-1.04136788845062,-1.29123473167419,0.353914886713028
55,-0.00279853399843,-0.028341537341476,0.96209990978241,-16.9059352874756,6.75274229049683,2.83443355560303,1.78580188751221,0.390864998102188,0.292380809783936,-1.30702173709869,-1.44703841209412,0.368559569120407
56,-0.026366915553808,0.028494991362095,0.988527417182922,-12.6708879470825,2.93255305290222,3.3910915851593,1.78605926036835,0.389816284179687,0.291637867689133,-1.33763694763184,-1.51813590526581,0.462774306535721
57,0.017257375642657,-0.030130857601762,0.963867425918579,-3.72354102134705,-4.77734518051147,3.59879493713379,1.785640001297,0.388843089342117,0.291017770767212,-1.58350503444672,-1.4669052362442,0.406642079353332
58,0.060352452099323,-0.193857088685036,1.02713549137115,3.71248030662537,-14.2172574996948,4.9023962020874,1.78480386734009,0.387247174978256,0.286799371242523,-1.49215257167816,-1.28867876529694,0.453053086996079
59,-0.052270084619522,0.031729765236378,1.01972591876984,12.2495422363281,-22.6809406280518,5.84966421127319,1.78421604633331,0.385821402072906,0.285893142223358,-1.34802353382111,-1.04608225822449,0.513354241847992
60,0.090551093220711,-0.089201763272286,0.974528908729553,19.2481021881104,-26.0193176269531,3.98958349227905,1.78488039970398,0.385506302118301,0.28499048948288,-1.1561735868454,-0.864400446414948,0.612521350383758
61,0.060674820095301,-0.132916390895844,0.92097419500351,23.8444118499756,-26.0769729614258,2.73735594749451,1.78538727760315,0.385112375020981,0.280544221401215,-0.937345564365387,-0.659834682941437,0.669192433357239
62,0.061889257282019,0.039871215820313,0.910772621631622,25.4919548034668,-22.3010025024414,2.80678582191467,1.7844865322113,0.383245527744293,0.279227346181869,-0.623128235340118,-0.306731909513473,0.680659055709839
63,0.079483039677143,-0.022107291966677,1.00750434398651,24.0271453857422,-14.827693939209,3.00700712203979,1.78400599956512,0.382428884506226,0.278230726718903,-0.622411370277405,-0.122232712805271,0.571550905704498
64,-0.055893298238516,-0.117969527840614,1.11203813552856,19.0944576263428,-7.12454891204834,4.93313789367676,1.78489923477173,0.382694035768509,0.270700663328171,-0.438427954912186,-0.13659530878067,0.657425343990326
65,0.137494012713432,-0.017887473106384,1.1396576166153,16.0283622741699,-0.739461362361908,4.3197603225708,1.7846884727478,0.381933838129044,0.269213169813156,-0.306071281433106,-0.088195376098156,0.677850186824799
66,0.414906650781632,-0.202726513147354,1.11272525787354,13.1010665893555,-0.198319867253304,2.92499375343323,1.78625726699829,0.382514834403992,0.267891347408295,-0.151857227087021,-0.246403217315674,0.795157015323639
67,0.265427201986313,-0.053795918822289,1.05251657962799,14.1406650543213,-3.85286784172058,-0.321550577878952,1.78601777553558,0.381477981805801,0.269017547369003,-0.000953692942858,-0.170596823096275,0.787852942943573
68,-0.01269109454006,-0.069800607860088,1.03198802471161,12.0913991928101,-12.2317209243774,-0.029756361618638,1.78538167476654,0.38023316860199,0.267926961183548,0.138474777340889,-0.001723415101878,0.753303110599518
69,0.01047648768872,0.044926162809134,1.09328067302704,5.70411586761475,-14.4146871566772,-0.504468500614166,1.78436172008514,0.379317998886108,0.266992717981338,0.108086034655571,0.254007756710052,0.675019681453705
70,0.018029751256108,-0.023319384083152,1.11583817005157,-1.46461868286133,-14.5159387588501,1.11238360404968,1.78420579433441,0.378706216812134,0.266056507825851,0.099759317934513,0.40034544467926,0.679819881916046
71,0.002334601944312,0.003935039974749,1.06831908226013,-5.30951929092407,-15.9999027252197,0.979457318782806,1.78530740737915,0.379356443881988,0.262985557317734,-0.039844051003456,0.429291039705277,0.707051932811737
72,-0.013148343190551,-0.059618644416332,1.05263566970825,-9.81807899475098,-14.9083461761475,2.08568716049194,1.7865788936615,0.379778623580933,0.262171685695648,-0.161843836307526,0.451553910970688,0.751936376094818
73,0.053322318941355,0.038112461566925,1.11600041389465,-11.2044076919556,-7.13286209106445,2.78900098800659,1.7867785692215,0.37920543551445,0.261344432830811,-0.244145467877388,0.555196404457092,0.785189211368561
74,0.048814736306667,0.061832755804062,1.10702860355377,-6.23613500595093,-3.23739767074585,3.10953569412231,1.78731119632721,0.378117144107819,0.261411905288696,-0.202947586774826,0.563757419586182,0.841591119766235
75,0.010089068673551,0.052800823003054,1.08992421627045,0.704666376113892,-0.627565443515778,2.51083111763,1.78798449039459,0.377698719501495,0.260831326246262,-0.202907517552376,0.528759360313416,0.881917953491211
76,-0.089134357869625,-0.048632111400366,1.08974146842957,5.77809572219849,-1.27529585361481,3.63540124893188,1.78869223594666,0.376499086618423,0.260257512331009,-0.052271265536547,0.494182288646698,0.9342200756073
77,0.001528887776658,0.007537228986621,1.10371017456055,8.26609802246094,-2.06846714019775,4.83512449264526,1.78855538368225,0.375851899385452,0.259918361902237,-0.00311487307772,0.565527141094208,0.964583992958069
78,0.007693083025515,0.008500037714839,1.20327365398407,13.6904268264771,-4.96252679824829,6.08397197723389,1.78816115856171,0.374859780073166,0.259638249874115,0.129692360758781,0.683390617370606,1.00785005092621
79,-0.086180038750172,0.025279128924012,1.14944243431091,13.5490303039551,-13.7710514068604,7.34778833389282,1.78741347789764,0.37377992272377,0.25951212644577,0.275065243244171,0.881074786186218,1.05773460865021
80,-0.034174397587776,0.018036682158709,1.10316014289856,12.5673666000366,-18.4391345977783,6.34702730178833,1.78766989707947,0.373777359724045,0.259660363197327,0.342707365751266,1.02732443809509,1.13079357147217
81,-0.006293103098869,-0.047449480742216,1.13099324703217,11.0215587615967,-17.8355388641357,7.33844804763794,1.78853213787079,0.374715059995651,0.26424515247345,0.31913223862648,1.11719405651093,1.21958518028259
82,0.071644991636276,0.049976345151663,1.15696394443512,11.9270009994507,-12.4876127243042,7.82461595535278,1.78957617282867,0.374189287424087,0.264834523200989,0.465626835823059,1.14831614494324,1.3101019859314
83,-0.018868817016482,-0.044856108725071,1.18649160861969,12.3000812530518,-11.0045375823975,6.60846567153931,1.79021286964417,0.373572409152985,0.265568643808365,0.596324622631073,1.20221018791199,1.38233852386475
84,-0.04393644630909,-0.010939109139145,1.11347377300262,16.1492671966553,-6.21625137329102,4.87933731079102,1.7905238866806,0.371872693300247,0.266544491052628,0.834014415740967,1.26970458030701,1.42391812801361
85,0.054772552102804,-0.141651019454002,1.03648197650909,22.0772972106934,-1.77254009246826,5.20274353027344,1.79040575027466,0.37052509188652,0.267480581998825,1.08248031139374,1.34900712966919,1.46128070354462
86,0.117348812520504,-0.180588275194168,1.02745151519775,22.0811862945557,3.37152147293091,5.30316114425659,1.79112768173218,0.36909693479538,0.268441826105118,1.37273287773132,1.26934313774109,1.50085783004761
87,0.130971327424049,-0.172825053334236,1.10608696937561,21.170072555542,7.21352338790894,4.58932495117188,1.79149663448334,0.368526548147202,0.269662529230118,1.56717538833618,1.18930804729462,1.56011545658112
88,0.034092701971531,-0.069103501737118,1.04744744300842,14.5406618118286,12.0212440490723,3.59362840652466,1.79215967655182,0.368450433015823,0.270946860313415,1.66940450668335,1.03242635726929,1.61304688453674
89,0.041430082172155,-0.138333767652512,0.933573126792908,7.87532615661621,15.0300216674805,3.14371204376221,1.79239165782928,0.368983268737793,0.27233749628067,1.67046809196472,0.909574627876282,1.68010890483856
90,0.136347204446793,-0.143297433853149,1.00373828411102,-2.66745662689209,19.4394493103027,1.64244139194489,1.79340028762817,0.369060844182968,0.273628920316696,1.60303461551666,0.642328321933746,1.7180495262146
91,0.438648015260696,0.025558758527041,0.957960546016693,-5.76909923553467,20.1017723083496,1.20674121379852,1.79092228412628,0.367968380451202,0.279789388179779,1.67598819732666,0.783492922782898,1.77796447277069
92,0.310360848903656,-0.120643459260464,1.07739663124084,-8.61202812194824,19.7579803466797,0.121514514088631,1.7907817363739,0.368010818958283,0.281351894140244,1.52961003780365,0.605901300907135,1.81348431110382
93,0.192475661635399,0.104331359267235,0.98241776227951,-9.87759399414063,20.1462287902832,-0.216600477695465,1.79124712944031,0.367841422557831,0.282967329025269,1.35503327846527,0.340874344110489,1.8173896074295
94,-0.012893690727651,0.0682108476758,0.993419408798218,-8.73304557800293,19.1854705810547,0.104454800486565,1.79223263263702,0.364377111196518,0.286576420068741,1.43331921100616,0.015683226287365,1.74248802661896
95,0.033919755369425,-0.013814175501466,0.850425541400909,-8.51489734649658,12.6300344467163,0.763705670833588,1.79300475120544,0.363135546445847,0.288106501102448,1.33803999423981,-0.205240175127983,1.72958076000214
96,0.017049232497811,0.048390541225672,0.907491385936737,-6.06249237060547,6.48661088943481,1.24946248531342,1.79340898990631,0.363593518733978,0.289699107408524,1.14181041717529,-0.310739159584045,1.75559628009796
97,0.029168711975217,-0.043875828385353,0.831644713878632,-7.64396190643311,-1.57322025299072,1.45706212520599,1.79225647449493,0.360606670379639,0.284938275814056,1.3799090385437,-0.13998581469059,1.78914427757263
98,0.21122282743454,-0.107846431434155,0.788786470890045,-10.8134384155273,-8.04115104675293,0.986191749572754,1.79191052913666,0.360185116529465,0.285772055387497,1.24465036392212,-0.014965232461691,1.82248115539551
99,0.039584916085005,0.035339552909136,0.912350535392761,-12.7863969802856,-11.0894136428833,0.200020521879196,1.79134869575501,0.358487129211426,0.286251276731491,1.23025870323181,0.159792691469193,1.83912718296051
100,-0.048440091311932,0.017968118190765,0.87044233083725,-14.94615650177,-17.5089492797852,0.134794935584068,1.79105365276337,0.357480525970459,0.286725014448166,1.08205389976501,0.353174418210983,1.84493434429169
101,0.07986468821764,0.031082330271602,0.908785700798035,-17.1907138824463,-17.6576671600342,-0.229704782366753,1.79061436653137,0.357552319765091,0.295916557312012,0.774092674255371,0.556145131587982,1.85792255401611
102,0.193516924977303,0.190608128905296,0.766276180744171,-16.2004070281982,-14.6371021270752,0.499724000692368,1.79105997085571,0.355325639247894,0.296591579914093,0.692779958248138,0.662908554077148,1.83043658733368
103,0.01471895724535,0.010869134217501,0.778839290142059,-16.2218418121338,-9.28251457214356,1.24562811851501,1.79052269458771,0.355908095836639,0.297197073698044,0.388862460851669,0.833033382892608,1.8629378080368
104,0.044878039509058,-0.031736586242914,0.799932420253754,-15.6079244613647,-2.41238307952881,-0.207772940397263,1.79170072078705,0.35342401266098,0.294898808002472,0.336329728364944,0.758392810821533,1.81826901435852
105,0.076796486973763,-0.051096834242344,0.832784116268158,-11.5878620147705,5.62008666992188,-3.39764809608459,1.79207313060761,0.351043313741684,0.294715315103531,0.33687636256218,0.71305775642395,1.7722225189209
106,0.053456496447325,-0.228879511356354,0.780001640319824,-5.65854358673096,12.51828956604,-6.48669528961182,1.79151725769043,0.351021766662598,0.29442897439003,0.197352334856987,0.699753761291504,1.74842584133148
107,0.227658703923225,-0.050895664840937,0.819601356983185,0.638376533985138,21.5282726287842,-9.90368366241455,1.7927839756012,0.348289042711258,0.293858081102371,0.311358451843262,0.399329274892807,1.61561942100525
108,0.101610913872719,-0.064498096704483,0.817979753017426,9.74010467529297,27.4953575134277,-10.7432975769043,1.79250597953796,0.347158163785934,0.293028086423874,0.399226665496826,0.206455633044243,1.51848804950714
109,0.040151696652174,-0.075025551021099,0.91464227437973,17.735221862793,33.1651039123535,-10.9265842437744,1.79253208637238,0.345279157161713,0.291946858167648,0.626023471355438,-0.056360896676779,1.40925180912018
110,0.102197296917439,-0.033222436904907,0.857597708702087,28.2202835083008,32.8860359191895,-11.977427482605,1.79322290420532,0.343069106340408,0.296591430902481,0.931035935878754,-0.453939348459244,1.28070533275604
111,0.135396480560303,-0.289492964744568,0.896451473236084,30.649227142334,30.7261161804199,-12.1794700622559,1.79177927970886,0.341439098119736,0.295671075582504,1.31834661960602,-0.592676937580109,1.18445014953613
112,0.01767616532743,-0.379698485136032,1.00459766387939,23.7500991821289,25.5135078430176,-11.4278717041016,1.79272758960724,0.341863036155701,0.295072495937347,1.35871136188507,-0.974382221698761,1.06879007816315
113,0.23526918888092,-0.039768114686012,1.07010686397553,16.7949371337891,17.9766902923584,-10.4749517440796,1.79184901714325,0.341009348630905,0.294275522232056,1.52442562580109,-1.07268846035004,0.983370780944824
114,0.298698395490646,0.153797030448914,1.17228674888611,9.38637733459473,12.2213306427002,-8.31484794616699,1.79121911525726,0.339574843645096,0.297064393758774,1.65763318538666,-1.17788791656494,0.910066187381744
115,0.081667885184288,0.001599956303835,0.980257213115692,4.11044263839722,6.58877992630005,-9.57694911956787,1.79154253005981,0.338894695043564,0.296744465827942,1.60273349285126,-1.30146765708923,0.79827207326889
116,-0.187587678432465,0.033766821026802,0.968249440193176,-3.16076588630676,2.64142608642578,-8.79603576660156,1.79171288013458,0.337537676095962,0.296231716871262,1.59935474395752,-1.34804832935333,0.702476918697357
117,-0.024713499471545,0.044366512447596,0.917623400688171,-7.84824419021606,-3.60853409767151,-8.81362628936768,1.7902580499649,0.336667597293854,0.295440316200256,1.57607638835907,-1.13971674442291,0.663446426391602
118,0.098316818475723,-0.019811019301415,1.00431442260742,-8.74396133422852,-7.42461824417114,-8.12861347198486,1.78986024856567,0.335314363241196,0.294786423444748,1.51904439926147,-1.02962625026703,0.593789160251617
119,0.183148428797722,0.013757524080575,1.07145380973816,-6.30302619934082,-8.53910732269287,-8.70258712768555,1.79065549373627,0.333663195371628,0.294240981340408,1.40683960914612,-1.07488036155701,0.467948883771896
120,-0.067382656037808,-0.089621901512146,1.03848838806152,-5.49798059463501,-7.14171361923218,-8.47384166717529,1.79023468494415,0.332166284322739,0.295704305171967,1.39301729202271,-0.952321887016296,0.404457032680512
121,-0.036584749817848,-0.059746287763119,0.9950150847435,-6.05489587783814,-3.38805866241455,-8.14360904693604,1.78994941711426,0.331330239772797,0.295487403869629,1.21400773525238,-0.867916822433472,0.289720714092255
122,0.093506954610348,0.016596239060164,1.04802072048187,-7.81924390792847,0.963069796562195,-7.86013555526733,1.79007458686829,0.329453736543655,0.294975996017456,1.24141061306,-0.872088193893433,0.24451656639576
123,0.052659876644611,0.154501751065254,1.08718085289001,-10.0921258926392,4.10764932632446,-7.49052047729492,1.79103600978851,0.327168434858322,0.2945177257061,1.21745598316193,-1.02531027793884,0.166658386588097
124,-0.070292934775353,-0.010006408207119,1.01309907436371,-8.3936071395874,4.712477684021,-9.25223827362061,1.79121470451355,0.326113879680634,0.294261336326599,0.979012608528137,-1.09585893154144,0.020105853676796
125,-0.017320958897472,-0.234596863389015,1.03694093227386,-5.38381290435791,5.48814678192139,-9.39936923980713,1.79167759418488,0.32411128282547,0.293870717287064,1.02973711490631,-1.15706861019135,-0.039136666804552
126,0.13722850382328,0.052235007286072,1.080482006073,-3.49611210823059,2.79962563514709,-10.5881500244141,1.79185307025909,0.322670549154282,0.293760031461716,0.930167973041534,-1.2006174325943,-0.152902573347092
127,0.049426898360252,0.291182190179825,1.12453460693359,1.15668880939484,-0.075928814709187,-11.2932138442993,1.79266691207886,0.320369690656662,0.297817051410675,1.00259864330292,-1.28662800788879,-0.254199177026749
128,-0.118755057454109,-0.136405661702156,1.00565993785858,0.002292974386364,-10.5010461807251,-12.0133752822876,1.79340505599976,0.318804144859314,0.298178315162659,0.915953278541565,-1.27806067466736,-0.430978506803513
129,0.038135271519423,-0.30081906914711,0.911622822284698,-1.57107698917389,-22.6804695129395,-10.8002996444702,1.79279220104218,0.317664951086044,0.298527628183365,0.898192882537842,-0.969576478004456,-0.531914472579956
130,0.000136409871629,-0.200625240802765,1.06948137283325,-6.68548583984375,-30.2511157989502,-8.86962509155273,1.79168879985809,0.316514372825623,0.2991643846035,0.861278116703033,-0.528950810432434,-0.586260616779327
131,0.119503661990166,0.197244599461555,1.08370721340179,-8.78889560699463,-33.6006546020508,-8.05849838256836,1.79394197463989,0.313726752996445,0.299300521612167,0.91139829158783,-0.416677922010422,-0.652003467082977
132,0.07360078394413,0.135640874505043,1.08670508861542,-11.338888168335,-32.3514366149902,-5.89907312393189,1.79245829582214,0.313104271888733,0.300029188394546,0.619240343570709,0.083700403571129,-0.76362681388855
133,-0.014997537247837,0.00031208479777,1.09437084197998,-15.3817567825317,-28.7170581817627,-2.46587491035461,1.79438543319702,0.309735536575317,0.305688410997391,0.743880033493042,0.211202725768089,-0.732373595237732
134,-0.14058418571949,-0.014110724441707,1.01873564720154,-19.1610355377197,-21.3262977600098,-0.968122601509094,1.79506206512451,0.308097988367081,0.306723535060883,0.47578763961792,0.419344902038574,-0.783603310585022
135,0.101535722613335,0.161245435476303,0.928074359893799,-21.3864192962646,-13.1048994064331,0.831546425819397,1.7956086397171,0.306318610906601,0.307645440101624,0.250618994235992,0.587090611457825,-0.789650797843933
136,0.116920925676823,0.146241381764412,0.985220074653626,-23.4751968383789,-4.84990072250366,2.41630053520203,1.79524528980255,0.30440029501915,0.308393955230713,0.069364942610264,0.733712077140808,-0.748808920383453
137,-0.086781091988087,-0.067559510469437,0.970313549041748,-26.9646263122559,-0.952895641326904,2.75828289985657,1.79798245429993,0.303010791540146,0.310757279396057,-0.316384255886078,0.491359889507294,-0.771171152591705
138,-0.039020985364914,-0.241046577692032,0.86345785856247,-33.6531829833984,4.06063413619995,4.57569408416748,1.79828584194183,0.30034014582634,0.311478316783905,-0.490707874298096,0.515311360359192,-0.711096167564392
139,0.078904964029789,-0.102440468966961,0.982667505741119,-34.0229949951172,4.18310928344727,6.86194181442261,1.79929685592651,0.299998134374619,0.312392562627792,-1.02830803394318,0.42926761507988,-0.668269455432892
140,0.20882149040699,-0.032487668097019,1.01155781745911,-37.4948387145996,5.45418548583984,8.59966087341309,1.79971671104431,0.296772956848145,0.313323646783829,-1.219358086586,0.371968150138855,-0.57641738653183
141,-0.015542352572084,-0.034719258546829,1.07196819782257,-32.5027008056641,-1.29537308216095,7.88030195236206,1.79961383342743,0.297146439552307,0.314261168241501,-1.81654381752014,0.396941721439362,-0.514436423778534
142,-0.017980696633458,0.049665909260511,1.06297028064728,-26.8713264465332,-8.75434684753418,8.18085479736328,1.79898107051849,0.292826384305954,0.315152049064636,-1.85666298866272,0.559495210647583,-0.437133252620697
143,-0.027433108538389,0.259780794382095,0.968514502048492,-13.5997629165649,-17.2999114990234,8.24942970275879,1.7992844581604,0.291476279497147,0.316930741071701,-2.10078573226929,0.703822731971741,-0.352598398923874
144,-0.092563010752201,0.212541133165359,0.894673466682434,-2.3360059261322,-21.5076751708984,9.07165050506592,1.80007791519165,0.290362745523453,0.317810833454132,-2.1859405040741,0.84854382276535,-0.247848480939865
145,-0.008509541861713,0.018854178488255,0.81398332118988,9.302809715271,-24.5605506896973,8.42792320251465,1.8015204668045,0.288825392723083,0.318536907434463,-2.0773458480835,0.995508551597595,-0.120229348540306
146,-0.023306299000979,0.053897507488728,0.88034850358963,17.5546436309814,-25.3127861022949,7.81748247146606,1.80033421516418,0.284200996160507,0.31899431347847,-1.73984277248383,1.40596759319305,-0.103677593171597
147,-0.054560620337725,-0.008504052646458,0.881955087184906,21.6232261657715,-22.2548770904541,7.67688846588135,1.80372190475464,0.284814715385437,0.319105833768845,-1.54263699054718,1.39870262145996,0.102458156645298
148,-0.080572292208672,0.022078026086092,0.972425043582916,22.5666007995605,-15.2292385101318,8.36567211151123,1.80330550670624,0.282323122024536,0.319426655769348,-1.30166804790497,1.68756544589996,0.156900823116303
149,0.024065347388387,0.171940311789513,0.966031312942505,19.5105457305908,-8.07312488555908,6.94131708145142,1.80253279209137,0.280085742473602,0.319674849510193,-1.12558269500732,1.91901409626007,0.181811928749085
150,0.155417248606682,0.119941383600235,1.0362069606781,15.4129114151001,-1.03148198127747,7.06689739227295,1.80321598052979,0.279421031475067,0.320634514093399,-1.01056516170502,1.91225814819336,0.2812579870224
151,-0.002552225952968,-0.024813201278448,1.03801691532135,9.34451961517334,3.6482081413269,5.49567174911499,1.80433702468872,0.279721558094025,0.321106344461441,-0.999616265296936,1.79858982563019,0.40237820148468
152,-0.030265040695667,-0.005797064397484,1.01439070701599,5.88097953796387,5.80469751358032,3.09740829467773,1.80481028556824,0.279885917901993,0.321628600358963,-1.04910850524902,1.72698128223419,0.47637152671814
153,-0.024344179779291,0.055153343826532,0.982183396816254,1.98675727844238,7.5945405960083,2.10943651199341,1.80439436435699,0.277352601289749,0.325923681259155,-0.97444486618042,1.7077032327652,0.454475045204163
154,0.018749710172415,-0.046034961938858,0.909928143024445,-1.24433529376984,7.48035478591919,1.20463132858276,1.80478346347809,0.273585915565491,0.326346188783646,-0.810914695262909,1.60578298568726,0.419659793376923
155,-0.107700958848,-0.130388900637627,0.81510204076767,-4.5373854637146,2.81541633605957,0.501274287700653,1.8051450252533,0.273747026920319,0.326917111873627,-0.930554747581482,1.58967208862305,0.465869039297104
156,0.020584495738149,-0.025648899376392,0.869259357452393,-12.5445117950439,3.261634349823,0.331498235464096,1.8054655790329,0.273424744606018,0.327262938022613,-1.07766091823578,1.60327982902527,0.499090701341629
157,0.067949831485748,0.11404237896204,0.957610428333282,-13.4228458404541,3.23966693878174,-0.053375776857138,1.80572187900543,0.273139417171478,0.329392045736313,-1.25575399398804,1.58304476737976,0.525066614151001
158,-0.077518709003925,-0.049358263611794,1.0241631269455,-11.9249401092529,3.89049887657166,-0.146299183368683,1.80494260787964,0.269530981779098,0.329559832811356,-1.2748042345047,1.59134578704834,0.44309189915657
159,0.022829592227936,-0.057793863117695,0.98505300283432,-9.51632785797119,5.4016752243042,-0.134684473276138,1.8041775226593,0.264508932828903,0.329606354236603,-1.19895386695862,1.59251224994659,0.332447648048401
160,0.024744769558311,0.067102812230587,1.12916839122772,-8.33073139190674,6.24456596374512,0.722236514091492,1.80565822124481,0.264926493167877,0.330980390310287,-1.36318683624268,1.40087139606476,0.420627444982529
161,0.049514155834913,0.186953067779541,1.14591419696808,-5.01007318496704,8.30873870849609,0.352627843618393,1.80642175674438,0.265679866075516,0.331579059362411,-1.54784643650055,1.24790608882904,0.494254887104034
162,0.184340924024582,0.076545752584934,0.947532653808594,-5.05945587158203,11.5201578140259,-0.435945600271225,1.80633735656738,0.264344751834869,0.332195341587067,-1.60570430755615,1.1572402715683,0.483084321022034
163,0.062738709151745,-0.011376176029444,0.968964517116547,-3.14562463760376,16.9664993286133,-0.752443730831146,1.80484473705292,0.261820584535599,0.334131002426147,-1.63965249061584,1.12002468109131,0.399994492530823
164,0.125779613852501,0.148227274417877,1.005131483078,-1.62146270275116,21.4019470214844,1.15344727039337,1.80367112159729,0.258189290761948,0.334725856781006,-1.58866536617279,0.989941000938416,0.317747980356216
165,0.128611087799072,0.075572676956654,0.960809767246246,-0.621132135391235,22.1436748504639,-0.261887609958649,1.80359423160553,0.256645560264587,0.335354894399643,-1.58892285823822,0.742522656917572,0.308499217033386
166,0.060908742249012,-0.051354713737965,0.8943732380867,-0.531941533088684,22.6736545562744,-0.289570361375809,1.80572378635407,0.259238690137863,0.336049467325211,-1.73663938045502,0.330909341573715,0.453486174345017
167,0.074146218597889,-0.078666925430298,0.912117063999176,0.250613033771515,20.6447601318359,-1.90730285644531,1.80548417568207,0.256069004535675,0.337809830904007,-1.63164114952087,0.118737787008286,0.392203807830811
168,0.198950543999672,-0.048956036567688,0.948726773262024,-3.11881160736084,17.0071029663086,-1.52646398544312,1.80521988868713,0.255677700042725,0.338367640972137,-1.72734141349792,-0.05297826230526,0.381314039230347
169,0.044286891818047,-0.063702039420605,1.06470930576324,-3.80268335342407,10.0485353469849,-2.2424259185791,1.80235660076141,0.252290993928909,0.338993310928345,-1.75779914855957,0.002115730661899,0.232158541679382
170,0.010633992031217,-0.200333684682846,1.0693576335907,-1.98000371456146,1.86265218257904,-0.797934293746948,1.80197429656982,0.249586403369904,0.334405571222305,-1.69207835197449,-0.050098992884159,0.185326904058456
171,0.264594584703445,0.051362801343203,0.95022588968277,1.13010096549988,-7.18378973007202,-0.194510832428932,1.8017874956131,0.250406742095947,0.334789246320724,-1.83949768543243,-0.010603595525026,0.21515779197216
172,0.494380384683609,-0.354429632425308,1.0220193862915,3.00353336334229,-11.0525207519531,2.04366111755371,1.7997887134552,0.248415768146515,0.33511471748352,-1.84899699687958,0.236351668834686,0.161067917943001
173,0.532576620578766,-0.219081565737724,1.04379141330719,9.43410205841064,-12.5617027282715,2.34573984146118,1.79877114295959,0.247731760144234,0.336622387170792,-1.83846831321716,0.423306316137314,0.171191677451134
174,0.359548181295395,-0.104348585009575,1.02084124088287,16.9758472442627,-5.93167018890381,3.450275182724,1.7992787361145,0.247487738728523,0.33713087439537,-1.69477593898773,0.44020688533783,0.250150293111801
175,0.146835565567017,-0.209001332521439,0.959827065467834,24.010498046875,0.417573630809784,2.44671487808228,1.80128836631775,0.247583732008934,0.337684392929077,-1.40658724308014,0.280894041061401,0.3809994161129
176,0.097251281142235,-0.275971591472626,0.81866842508316,27.7334671020508,7.51012563705444,2.15870594978333,1.80197978019714,0.245994627475739,0.331392228603363,-1.03706789016724,0.189641043543816,0.429575622081757
177,0.05540481954813,-0.205227017402649,0.859420478343964,28.3623352050781,14.4147844314575,2.7620575428009,1.80211663246155,0.243833884596825,0.331145316362381,-0.626868009567261,0.081326171755791,0.458862960338593
178,0.252544581890106,-0.059495072811842,0.855036616325378,22.1885681152344,20.6819839477539,3.79569935798645,1.80190491676331,0.241800963878632,0.330714195966721,-0.297859698534012,-0.084468469023705,0.488074719905853
179,0.425555318593979,-0.073043517768383,0.935556650161743,14.728048324585,21.6925220489502,3.85469555854797,1.80187475681305,0.241569578647614,0.330367028713226,-0.199212908744812,-0.309612035751343,0.53439873456955
180,0.917424082756042,-0.147749572992325,0.908752381801605,10.7269401550293,22.2679767608643,5.23190259933472,1.79996681213379,0.240403324365616,0.328798532485962,-0.122421890497208,-0.40117409825325,0.516400396823883
181,0.253202557563782,-0.264548242092133,0.863499164581299,5.91629695892334,15.0048055648804,6.90900945663452,1.80135703086853,0.240679040551186,0.328123986721039,-0.044443156570196,-0.698909342288971,0.632639229297638
182,-0.160870432853699,-0.15952442586422,0.875001728534699,-7.02800512313843,9.66591930389404,8.24574851989746,1.79921996593475,0.240111112594604,0.327551931142807,-0.205762222409248,-0.64460164308548,0.642984330654144
183,-0.026549737900496,-0.040457468479872,0.967006623744965,-9.02067470550537,1.30782032012939,8.0827169418335,1.79937124252319,0.240132257342339,0.325068593025208,-0.353092461824417,-0.707314431667328,0.731780350208283
184,0.010439397767186,0.082481116056442,0.943262279033661,-9.18020343780518,-5.41273021697998,8.13870716094971,1.79893434047699,0.238329157233238,0.323928624391556,-0.354703962802887,-0.620605945587158,0.81761360168457
185,0.226231083273888,0.042824134230614,1.00341415405273,-7.17153882980347,-12.0230379104614,7.39656686782837,1.79807031154633,0.237050786614418,0.32278048992157,-0.414273172616959,-0.462700694799423,0.882645130157471
186,0.011978490278125,0.066142126917839,0.990491449832916,-4.10173416137695,-17.3179225921631,7.21350288391113,1.79671728610992,0.236125603318214,0.320425420999527,-0.490745961666107,-0.221135973930359,0.923788249492645
187,-0.08738873898983,-0.020969532430172,0.993752121925354,-0.8127561211586,-21.4491844177246,6.84671258926392,1.80063676834106,0.235396444797516,0.319236248731613,-0.361031025648117,-0.348876863718033,1.09427618980408
188,-0.003894366556779,-0.00279204826802,0.989778935909271,1.02471435070038,-20.5634002685547,6.6339259147644,1.79897689819336,0.234029412269592,0.318014800548553,-0.365152478218079,-0.003752688411623,1.13261544704437
189,0.107894085347652,-0.021148011088371,1.02560889720917,2.29207873344421,-18.6151809692383,7.00453042984009,1.79951548576355,0.231944143772125,0.316631495952606,-0.181465670466423,0.132599174976349,1.23500669002533
190,-0.083997040987015,-0.164941504597664,1.11050617694855,6.99297428131104,-12.2564783096313,7.064453125,1.79845309257507,0.23108084499836,0.317330658435822,-0.168519213795662,0.350225329399109,1.28355538845062
191,0.026744285598397,0.009747156873345,1.1771399974823,3.95801186561584,-7.07437419891357,7.49399900436401,1.79969847202301,0.231012552976608,0.316532641649246,-0.207685500383377,0.299123823642731,1.36137902736664
192,0.0455312281847,0.023573385551572,1.18559229373932,-2.45643973350525,-3.9234766960144,6.86852121353149,1.79952228069305,0.23035916686058,0.315817534923553,-0.269435912370682,0.318900913000107,1.42708122730255
193,-0.066776543855667,0.186283767223358,1.19489467144012,-12.0326852798462,-3.56722855567932,6.14201736450195,1.79946744441986,0.228983536362648,0.315144866704941,-0.335136324167252,0.325759053230286,1.49991059303284
194,-0.047012589871883,0.034866895526648,1.15579915046692,-18.7511215209961,-2.09237313270569,5.49587345123291,1.80106258392334,0.229591682553291,0.314942389726639,-0.669337630271912,0.152187436819077,1.54865908622742
195,0.076707266271114,0.216925948858261,1.17744827270508,-22.701732635498,-0.495866984128952,5.20357751846314,1.80110132694244,0.22825576364994,0.314748346805572,-0.862783551216126,0.157319024205208,1.61107897758484
196,0.166450262069702,0.185180112719536,0.981539368629456,-20.3728942871094,0.042745675891638,5.17475605010986,1.80120158195496,0.226789310574532,0.309726029634476,-1.02291917800903,0.151248469948769,1.67075979709625
197,0.049259193241596,0.17952424287796,0.989363074302673,-16.8478698730469,1.06116783618927,5.11997985839844,1.80133152008057,0.22571150958538,0.309346675872803,-1.18965363502502,0.138138547539711,1.72532439231873
198,0.421519666910172,0.024785922840238,1.05083894729614,-6.8757119178772,-1.61275541782379,5.62950658798218,1.80207824707031,0.22485277056694,0.308967113494873,-1.27375936508179,0.08823785930872,1.78462648391724
199,0.024580296128988,0.015461880713701,1.0108734369278,5.96077346801758,-0.010105806402862,5.47097873687744,1.80214560031891,0.22240374982357,0.303788721561432,-1.06377398967743,0.11717950552702,1.8530558347702
200,-0.133275210857391,0.133343368768692,0.98757004737854,18.5887756347656,2.44331836700439,4.85099029541016,1.80226957798004,0.221200972795486,0.303113430738449,-0.880925118923187,0.107535198330879,1.90022015571594
201,-0.132327944040298,0.113938011229038,1.01464176177979,25.1809597015381,0.771556079387665,5.37925863265991,1.80224668979645,0.220228627324104,0.302442878484726,-0.653919398784637,0.126062825322151,1.94860863685608
202,-0.08317755907774,0.156495437026024,0.922935903072357,23.9207305908203,2.51836967468262,6.6964864730835,1.80219161510468,0.22139473259449,0.301979184150696,-0.644564688205719,0.110593676567078,1.98468852043152
203,-0.005194904282689,-0.066704973578453,0.932007908821106,19.5625534057617,0.861096560955048,7.77718019485474,1.80227947235107,0.220024779438972,0.300826698541641,-0.365190893411636,0.106863930821419,2.06829118728638
204,-0.054574377834797,0.04851371049881,0.989787817001343,13.2274932861328,-0.976769506931305,8.46578598022461,1.8022472858429,0.219071000814438,0.299974232912064,-0.205449268221855,0.1316307336092,2.14838695526123
205,-0.037559650838375,-0.026958765462041,1.10549938678741,5.57788133621216,-2.39063405990601,9.91017723083496,1.80212438106537,0.218567863106728,0.299213767051697,-0.167949587106705,0.162521332502365,2.23904991149902
206,-0.010601509362459,0.025422565639019,1.1664320230484,-2.35927486419678,-6.00774335861206,9.51913928985596,1.80176293849945,0.218585595488548,0.295306771993637,-0.270589381456375,0.234502226114273,2.32813954353333
207,-0.002729195868596,-0.029270963743329,1.17493498325348,-8.42004871368408,-7.89322853088379,9.30823040008545,1.80211758613586,0.218438372015953,0.294644504785538,-0.394551366567612,0.24909895658493,2.42159581184387
208,-0.032950662076473,0.084164284169674,1.19488155841827,-9.31940841674805,-11.2639570236206,8.91947650909424,1.80132484436035,0.218916118144989,0.294218689203262,-0.631052911281586,0.410304963588715,2.50036835670471
209,-0.036765232682228,0.163647428154945,1.14266800880432,-6.34188604354858,-11.8288278579712,6.89611196517944,1.8006397485733,0.2171241492033,0.292214632034302,-0.596690535545349,0.581212878227234,2.58551549911499
210,-0.081896908581257,0.261739194393158,1.03823447227478,-2.70079278945923,-7.08889293670654,5.81379175186157,1.80180764198303,0.21680748462677,0.292005002498627,-0.658533930778503,0.517764389514923,2.65239262580872
211,-0.122764967381954,0.008723184466362,1.09334790706635,4.84581899642944,-2.41743421554565,4.35568618774414,1.8024080991745,0.216649234294891,0.291827201843262,-0.67028796672821,0.474344879388809,2.70088219642639
212,-0.133004769682884,0.219284906983376,0.99166750907898,13.2147998809814,1.75463151931763,2.5153911113739,1.80259025096893,0.214390471577644,0.291612833738327,-0.377201676368713,0.460193514823914,2.73106241226196
213,0.118070386350155,-0.007187565788627,1.04259848594666,18.4478206634521,6.46426010131836,1.08811128139496,1.80294442176819,0.214729934930801,0.292017579078674,-0.31284573674202,0.373183012008667,2.7454833984375
214,0.068232275545597,0.203848421573639,0.852075397968292,25.3612823486328,4.61546468734741,-1.31927466392517,1.80323505401611,0.213752225041389,0.291836500167847,-0.015691904351115,0.311083018779755,2.73561668395996
215,0.029387744143605,0.007393412292004,1.00545859336853,22.4709777832031,7.60499143600464,-0.767773151397705,1.80364048480988,0.213758751749992,0.291667550802231,0.150120854377747,0.21262301504612,2.72910261154175
216,0.041952710598707,0.099263183772564,0.903845906257629,24.0657958984375,8.02726745605469,-2.08074069023132,1.80262625217438,0.2127825319767,0.289147764444351,0.439941704273224,0.269615411758423,2.70740389823914
217,-0.180807456374168,-0.064567096531391,0.872188925743103,22.9760990142822,10.5047245025635,-0.887250661849976,1.80311858654022,0.213412165641785,0.288733154535294,0.561557054519653,0.138342306017876,2.69386982917786
218,0.070251807570458,-0.065332263708115,0.897243559360504,22.6735343933105,16.2635955810547,-1.06083083152771,1.80412542819977,0.211874961853027,0.287927895784378,0.91786789894104,-0.091962032020092,2.67930269241333
219,-0.08316420018673,-0.119037285447121,0.972348570823669,23.5958576202393,18.8831520080566,-0.844178795814514,1.80383467674255,0.2110435962677,0.287736743688583,1.20233154296875,-0.20571893453598,2.67451357841492
220,-0.053312141448259,0.014155779033899,0.991028070449829,14.8437881469727,20.2400341033936,0.187477752566338,1.80437481403351,0.210632130503654,0.287001520395279,1.33680403232574,-0.438560098409653,2.67055106163025
221,0.248460337519646,-0.028433995321393,1.04222893714905,11.0532817840576,15.8974266052246,0.139981925487518,1.80474066734314,0.209882944822311,0.286217451095581,1.4541449546814,-0.628004372119904,2.66989946365356
222,0.203586742281914,0.032434031367302,1.02757883071899,3.23120737075806,9.50999736785889,-0.5817591547966,1.80348134040833,0.210211664438248,0.285743176937103,1.44326782226563,-0.569242060184479,2.70373487472534
223,0.04884597659111,0.189059615135193,1.13133454322815,-4.34107208251953,0.213751211762428,-2.18820691108704,1.80364060401917,0.209671065211296,0.286239922046661,1.37655246257782,-0.62291431427002,2.68102169036865
224,0.006142398808151,0.024471130222082,1.08657741546631,-6.47778463363647,-6.61117601394653,-4.14784240722656,1.80327236652374,0.210061714053154,0.285961329936981,1.19705307483673,-0.533825576305389,2.64396023750305
225,0.06456770002842,0.097705945372582,1.03770899772644,-9.13028240203857,-13.0405731201172,-5.2607479095459,1.80324947834015,0.209347680211067,0.285580784082413,1.13094437122345,-0.401923716068268,2.59992814064026
226,0.014184352941811,0.012063082307577,1.07027447223663,-11.5233421325684,-18.4138889312744,-5.60471248626709,1.8028290271759,0.209402367472649,0.285779505968094,0.943484723567963,-0.15356220304966,2.54294800758362
227,0.102893017232418,0.005228667054325,1.05039417743683,-15.0385608673096,-18.8724460601807,-5.94044828414917,1.80320560932159,0.207236737012863,0.285432040691376,1.03173387050629,0.032295383512974,2.51075100898743
228,0.285409957170486,-0.024005271494389,0.936241924762726,-19.8556003570557,-17.9479503631592,-5.31143712997437,1.8031804561615,0.207631602883339,0.28545069694519,0.643948554992676,0.205109238624573,2.40990877151489
229,0.07411340624094,-0.285028636455536,0.926907122135162,-21.8297901153564,-15.0866823196411,-3.98880243301392,1.80360317230225,0.206162214279175,0.282996386289597,0.549216389656067,0.335950881242752,2.36370801925659
230,0.124531462788582,-0.224260374903679,1.08824157714844,-20.8020572662353,-10.4192934036255,-3.66170287132263,1.80406630039215,0.205967158079147,0.282659232616425,0.211806759238243,0.378519833087921,2.27592921257019
231,0.12529693543911,-0.143082961440086,1.14494001865387,-15.7925748825073,-5.44316816329956,-2.92799878120422,1.80414283275604,0.20367705821991,0.282311290502548,0.321322411298752,0.463260233402252,2.29870915412903
232,0.227639615535736,0.019566588103771,1.18101847171783,-9.3126859664917,-1.47750651836395,-2.93556880950928,1.80518817901611,0.203213751316071,0.282366544008255,0.042571902275086,0.304821938276291,2.19606161117554
233,0.283316254615784,0.057305049151182,1.24551236629486,-2.31299138069153,1.90922737121582,-2.94197058677673,1.80558407306671,0.200972512364387,0.286529004573822,0.187162548303604,0.264226287603378,2.18370580673218
234,0.035732720047236,0.295995444059372,1.15362918376923,3.81406450271606,3.42480325698853,-3.18112325668335,1.80587327480316,0.200712531805038,0.287131041288376,0.112103596329689,0.197094291448593,2.13920640945435
235,0.165491297841072,0.20485945045948,1.05901503562927,7.79586410522461,4.89534950256348,-2.73883318901062,1.80625903606415,0.199045792222023,0.287729620933533,0.276100277900696,0.137375593185425,2.11345219612122
236,0.523795783519745,0.263205111026764,0.863233983516693,12.0384187698364,6.75589036941528,-4.11522531509399,1.80664992332459,0.198291286826134,0.286391526460648,0.371803551912308,0.052464857697487,2.06670999526978
237,0.258080393075943,-0.08886132389307,0.838255822658539,11.9228925704956,5.09227418899536,-2.92725157737732,1.80693864822388,0.198000118136406,0.286804229021072,0.436994194984436,0.006656959187239,2.02955508232117
238,0.055636160075665,-0.134210839867592,0.873949468135834,8.57628059387207,-0.597980618476868,-3.426589012146,1.80689907073975,0.196811303496361,0.286937743425369,0.6177818775177,0.074073560535908,2.00971293449402
239,-0.00683165108785,-0.231594055891037,0.861649692058563,3.44888734817505,-1.59313035011292,-3.98394012451172,1.80685019493103,0.196419030427933,0.288720041513443,0.62936931848526,0.136191204190254,1.97907173633575
240,0.162345573306084,-0.285943180322647,0.976427435874939,-4.93998527526856,-5.44879055023193,-3.25818634033203,1.80652046203613,0.196620777249336,0.28885555267334,0.511334657669067,0.254977464675903,1.95866358280182
241,0.057783752679825,-0.16930715739727,1.11816442012787,-11.2249021530151,-6.18529319763184,-3.91367340087891,1.80625534057617,0.196637853980064,0.288990467786789,0.342777013778686,0.354744791984558,1.92892146110535
242,0.435298621654511,-0.243900448083878,1.21346855163574,-12.929084777832,-8.94095897674561,-4.91300058364868,1.80707561969757,0.194154262542725,0.296327143907547,0.359398454427719,0.358849912881851,1.86590147018433
243,0.334584385156632,0.168516531586647,1.2687052488327,-16.1088523864746,-11.1638956069946,-3.652672290802,1.80776417255402,0.193489044904709,0.297292530536652,0.125691547989845,0.383129715919495,1.80669224262238
244,0.108630530536175,0.151085391640663,1.21429085731506,-13.7115316390991,-13.9277305603027,-4.29903030395508,1.80725729465485,0.192786678671837,0.298479616641998,-0.014681037515402,0.581718802452087,1.79063880443573
245,-0.001242716331035,0.210869684815407,1.17523860931396,-7.42085027694702,-15.2388935089111,-4.82571840286255,1.80720686912537,0.192077696323395,0.299899816513061,-0.119679845869541,0.723348677158356,1.74881994724274
246,-0.036956369876862,0.15795348584652,1.11921203136444,2.01566123962402,-16.4600200653076,-5.42655515670776,1.80835652351379,0.190337598323822,0.302598029375076,-0.07940585911274,0.734136402606964,1.66623306274414
247,-0.096583619713783,0.234598070383072,1.07110369205475,7.6798586845398,-15.7950201034546,-6.13734817504883,1.80884385108948,0.189241334795952,0.30436497926712,-0.020184077322483,0.842750072479248,1.5987583398819
248,-0.098016411066055,0.26376536488533,1.02275621891022,12.0616025924683,-13.1885757446289,-6.77178478240967,1.80880355834961,0.188013002276421,0.306154370307922,0.112478256225586,0.998624742031097,1.53163146972656
249,-0.141757920384407,0.19535705447197,1.01150453090668,15.2763366699219,-11.913200378418,-8.13192939758301,1.80877256393433,0.187288656830788,0.306548714637756,0.224627166986465,1.14247369766235,1.45692563056946
250,-0.18931020796299,0.377821654081345,0.973177015781403,15.3919811248779,-11.3188724517822,-8.05288982391357,1.8088356256485,0.186476156115532,0.308308273553848,0.352742344141007,1.25168204307556,1.37309217453003
251,-0.110861077904701,0.224421203136444,0.900562763214111,15.3560523986816,-7.44344902038574,-8.20227432250977,1.81043255329132,0.185162961483002,0.310085862874985,0.507310628890991,1.1495920419693,1.26490521430969
252,0.176110997796059,0.035337626934052,0.906978249549866,12.1712598800659,0.461373180150986,-8.32478809356689,1.81106662750244,0.184219777584076,0.313182413578033,0.615640163421631,1.11269915103912,1.17690896987915
253,0.023694064468145,0.200300216674805,0.847410500049591,5.93552589416504,5.79898452758789,-8.23246383666992,1.81075263023376,0.184082522988319,0.314819812774658,0.629715025424957,1.12780511379242,1.11303925514221
254,0.009715786203742,0.05488496273756,0.788982689380646,3.40175914764404,6.8683180809021,-8.41718864440918,1.81126463413239,0.183686688542366,0.316260129213333,0.64359188079834,1.02063143253326,1.03042495250702
255,-0.013786183670163,-0.134453818202019,0.699773788452148,-0.521968066692352,9.32217979431152,-8.76286697387695,1.81174778938293,0.182568117976189,0.317358553409576,0.679209232330322,0.917480289936066,0.934017956256866
256,-0.018291147425771,-0.109065309166908,0.765603005886078,-2.42717170715332,10.4409828186035,-9.90347862243652,1.81082224845886,0.183386981487274,0.316711992025375,0.567247152328491,0.994103670120239,0.883607089519501
257,0.1366818100214,0.018169803544879,0.823252320289612,-2.53727078437805,12.2988967895508,-10.445408821106,1.80993843078613,0.18405619263649,0.317257702350616,0.475802958011627,1.02186357975006,0.819768965244293
258,0.189999520778656,-0.024752022698522,0.854216635227203,4.86134386062622,13.8787460327148,-11.4012279510498,1.81006479263306,0.183739095926285,0.317585438489914,0.493716418743134,0.872305929660797,0.711435317993164
259,0.171158865094185,-0.02942499704659,0.942357957363129,4.64470195770264,10.7588834762573,-10.2056312561035,1.809525847435,0.182660296559334,0.316815227270126,0.58883935213089,0.792776107788086,0.609031617641449
260,0.228977337479591,0.012253925204277,0.937305867671967,9.57780933380127,8.87887096405029,-8.42485237121582,1.81013250350952,0.181872367858887,0.316876709461212,0.669629216194153,0.623238801956177,0.511284351348877
261,0.11547040194273,-0.111003629863262,0.848780333995819,13.1196432113647,6.89574956893921,-8.44625282287598,1.81058776378632,0.181815326213837,0.316845178604126,0.742512941360474,0.517437040805817,0.432317584753037
262,0.073861189186573,0.01025019120425,0.849365770816803,13.9736938476563,5.52497911453247,-8.43052577972412,1.80969047546387,0.175699710845947,0.318898677825928,1.28112590312958,0.53118246793747,0.269059151411057
263,-0.017254462465644,-0.031851142644882,0.96011233329773,13.0903539657593,2.91643857955933,-6.70986127853394,1.80982339382172,0.174904644489288,0.318671196699142,1.38465738296509,0.488332778215408,0.200309246778488
264,0.116275697946548,-0.108316510915756,0.823103964328766,6.80737400054932,5.29508256912231,-5.42494916915894,1.80944955348969,0.174354046583176,0.318319380283356,1.46425712108612,0.478102743625641,0.157873973250389
265,0.108331091701984,-0.377909064292908,0.820989310741425,2.76790380477905,0.876721799373627,-4.9907021522522,1.80948233604431,0.172788292169571,0.320436358451843,1.55582749843597,0.441868752241135,0.099693201482296
266,-0.012458745390177,-0.471514374017715,0.887960255146027,-6.15124940872192,-0.038284476846457,-2.70146441459656,1.80879759788513,0.173446699976921,0.320012032985687,1.42655408382416,0.523036360740662,0.112079277634621
267,-0.070241712033749,-0.357960283756256,0.993655145168304,-12.8716850280762,0.106007069349289,-0.671648859977722,1.80858087539673,0.170687511563301,0.319171726703644,1.44291877746582,0.529566049575806,0.082628510892391
268,0.041239071637392,-0.051637351512909,1.07323026657105,-17.9418029785156,2.47804093360901,0.511403918266296,1.80859184265137,0.168535202741623,0.318435221910477,1.3210791349411,0.484743893146515,0.073016308248043
269,-0.024789176881313,0.261145323514938,1.1279262304306,-19.6259460449219,4.61363363265991,1.66762840747833,1.80756318569183,0.168089300394058,0.320903956890106,1.08046984672546,0.514709234237671,0.127900525927544
270,0.076278530061245,0.196109980344772,1.02384078502655,-20.0623817443848,7.31317853927612,2.89345407485962,1.80738079547882,0.166195154190064,0.320587456226349,0.921853721141815,0.414822727441788,0.142675325274468
271,-0.040894694626331,0.07931998372078,0.862315058708191,-18.740161895752,7.98903274536133,2.71141362190247,1.80773878097534,0.162959530949593,0.320132285356522,0.847007274627685,0.267838299274445,0.126208931207657
272,-0.131009146571159,0.088318973779678,0.912615180015564,-19.3229351043701,6.41753435134888,2.65980648994446,1.80603408813477,0.163678333163261,0.324159115552902,0.544257164001465,0.376445651054382,0.223787635564804
273,0.17716471850872,0.048764821141958,0.914168953895569,-17.0514335632324,5.32334327697754,3.32485723495483,1.80634224414825,0.161974385380745,0.323935925960541,0.378324598073959,0.235288932919502,0.225109368562698
274,-0.018666308373213,-0.19284126162529,1.01424515247345,-14.9442939758301,4.43797016143799,4.37510108947754,1.80664050579071,0.160243481397629,0.32364422082901,0.235309928655624,0.115779027342796,0.245411857962608
275,-0.033927738666535,-0.063427492976189,1.03279685974121,-18.6426773071289,0.726260900497437,5.33086585998535,1.80728650093079,0.156994670629501,0.323492050170898,0.177276596426964,0.013876672834158,0.259307950735092
276,0.031287979334593,0.118907943367958,1.09891021251678,-11.1715316772461,-7.26644897460938,5.83819961547852,1.80687737464905,0.155580267310143,0.323261022567749,0.053297959268093,0.105141021311283,0.325001418590546
277,-0.093608006834984,0.123303018510342,1.19228732585907,-5.59109830856323,-11.9120588302612,7.08171558380127,1.80617022514343,0.153102099895477,0.323064744472504,0.084461741149426,0.270815759897232,0.403767824172974
278,-0.015905780717731,0.282205939292908,1.13924717903137,0.161439150571823,-13.0120601654053,8.21832752227783,1.80531692504883,0.152673691511154,0.323237091302872,-0.026261085644364,0.462827354669571,0.501144647598267
279,-0.013243107125163,0.310404866933823,1.04632079601288,0.057165544480085,-9.05364608764648,9.3583402633667,1.80471587181091,0.152654752135277,0.326253831386566,-0.177691414952278,0.56979364156723,0.598464369773865
280,0.085810542106629,0.230790033936501,0.973108053207397,-1.56579732894897,-4.65887689590454,8.54495716094971,1.80589532852173,0.150884479284287,0.32670921087265,-0.199723362922668,0.454163521528244,0.662313342094421
281,0.180683746933937,0.177780032157898,0.92853581905365,-2.7184476852417,3.21938276290894,8.05480289459229,1.80690479278564,0.149289637804031,0.327085465192795,-0.229742959141731,0.299214988946915,0.727656662464142
282,-0.091354012489319,-0.09206248819828,0.870930135250092,-5.33280324935913,6.95819616317749,7.98913192749023,1.80744063854218,0.147881761193275,0.328348815441132,-0.283142328262329,0.162206381559372,0.800176620483398
283,-0.078729927539826,-0.081597611308098,0.9265096783638,-6.8586311340332,7.23218965530396,7.58517122268677,1.80707502365112,0.148352205753326,0.32869952917099,-0.517066717147827,0.137114688754082,0.880134582519531
284,0.094187900424004,-0.077754735946655,0.95115715265274,-6.4772515296936,8.97559261322022,7.0591983795166,1.80527675151825,0.145657062530518,0.328801214694977,-0.42872628569603,0.224943250417709,0.956178605556488
285,0.037130415439606,-0.044073335826397,0.987951099872589,-6.27033615112305,11.1211795806885,6.72867822647095,1.80595004558563,0.143587559461594,0.330320566892624,-0.428617626428604,0.033790029585362,1.02137112617493
286,0.187818095088005,-0.006663639098406,0.902251124382019,-4.74769258499146,12.0630645751953,6.42603540420532,1.80585503578186,0.142297565937042,0.330499678850174,-0.480849623680115,-0.072010017931461,1.08529317378998
287,0.070605985820294,-0.021355232223868,0.96749472618103,-5.84036827087402,16.3905715942383,5.9902400970459,1.80535173416138,0.142659246921539,0.330777764320374,-0.714489340782166,-0.203188434243202,1.13950347900391
288,-0.036825332790613,-0.183426588773727,0.976978361606598,-2.16478300094604,16.3293018341064,6.67702865600586,1.80496609210968,0.139648735523224,0.330772459506988,-0.554705202579498,-0.338043481111526,1.20805239677429
289,-0.007913570851088,-0.028487905859947,0.987361311912537,-1.69379091262817,17.44358253479,6.04821109771729,1.80449974536896,0.138828784227371,0.332040697336197,-0.631522417068481,-0.482320785522461,1.26340985298157
290,0.009299889206886,0.038426693528891,0.961604297161102,1.78285813331604,17.5332717895508,5.5971360206604,1.8042916059494,0.135689154267311,0.332018256187439,-0.423395365476608,-0.650297820568085,1.33254647254944
291,-0.044057309627533,-0.058587610721588,0.928907752037048,-0.142529606819153,14.9137735366821,4.83882904052734,1.80282294750214,0.134550467133522,0.33219388127327,-0.488741904497147,-0.686255753040314,1.35974037647247
292,0.061825431883335,0.073098257184029,0.846839010715485,-2.53894066810608,10.3474407196045,4.32079410552979,1.80261647701263,0.134453266859055,0.333586007356644,-0.67022031545639,-0.801546812057495,1.38752591609955
293,0.155429825186729,0.015118622221053,0.802769243717194,-6.81209850311279,1.97224545478821,3.30765390396118,1.80134510993958,0.132401645183563,0.333416014909744,-0.663524806499481,-0.74999988079071,1.41758155822754
294,-0.012116642668843,-0.178858861327171,0.815989077091217,-9.98051357269287,-5.36424064636231,3.0630316734314,1.80095505714417,0.132618248462677,0.333263903856277,-0.945208072662354,-0.735573053359985,1.41903221607208
295,0.016076387837529,-0.025921704247594,0.839360117912293,-12.2424049377441,-7.03897476196289,2.45937371253967,1.80141651630402,0.130726978182793,0.33418607711792,-0.940946459770202,-0.71972119808197,1.48300898075104
296,-0.008205416612327,0.139528349041939,0.858747899532318,-9.26892757415772,-3.7445502281189,2.33629727363586,1.80109131336212,0.129718109965324,0.333676278591156,-1.06548464298248,-0.685706913471222,1.4999920129776
297,-0.096734836697579,0.015534811653197,0.889160513877869,-3.5444598197937,1.36798870563507,2.69494557380676,1.80051028728485,0.127783432602882,0.33298322558403,-1.01953232288361,-0.668971598148346,1.53989827632904
298,-0.027909319847822,0.079608641564846,0.943493247032166,1.90485072135925,7.35325288772583,2.61666488647461,1.8016265630722,0.128450140357018,0.331573128700256,-1.20297527313232,-0.879920721054077,1.55111110210419
299,0.041873503476381,-0.001775493845344,0.97178065776825,4.72223377227783,9.84356498718262,2.44049549102783,1.80185770988464,0.126907929778099,0.330731719732285,-1.06480753421783,-1.01490879058838,1.60135674476624
300,-0.028304675593972,-0.071681618690491,1.04788744449615,5.09337472915649,9.22187423706055,0.392051190137863,1.80182945728302,0.125816971063614,0.329931050539017,-1.01277852058411,-1.11427748203278,1.60559153556824
301,-0.0096535962075,0.099841721355915,1.09266042709351,8.11832427978516,7.50063323974609,-0.845029532909393,1.80238580703735,0.125332891941071,0.329211443662643,-0.98268711566925,-1.24595761299133,1.59679865837097
302,0.095814496278763,-0.048853080719709,1.08628237247467,9.51310348510742,5.7602686882019,-2.33388185501099,1.80203497409821,0.124354884028435,0.327437967061996,-0.91014552116394,-1.28570115566254,1.55644142627716
303,0.113199360668659,-0.129618167877197,1.07322525978088,8.27054882049561,1.17316257953644,-3.2534613609314,1.80236005783081,0.123246550559998,0.32676687836647,-0.780388653278351,-1.31494295597076,1.54736268520355
304,0.019530294463039,-0.021245868876577,1.05671060085297,3.37869071960449,-3.72327017784119,-5.08943176269531,1.80214381217957,0.122038349509239,0.326181590557098,-0.715141296386719,-1.252556681633,1.49738776683807
305,0.346982419490814,-0.230656981468201,1.05706965923309,0.135211199522018,-8.1163501739502,-4.74144458770752,1.80134606361389,0.121146164834499,0.328677415847778,-0.797853112220764,-1.11382973194122,1.39451932907105
306,0.280187249183655,0.019909098744392,0.992648422718048,-4.23903560638428,-17.3619956970215,-5.11145257949829,1.80105197429657,0.119867168366909,0.328308820724487,-0.786394774913788,-0.912989497184753,1.35271322727203
307,0.182390630245209,-0.162259638309479,1.01680493354797,-12.1859445571899,-18.7491436004639,-5.42449808120728,1.80044531822205,0.118649996817112,0.327949434518814,-0.882843971252441,-0.671727240085602,1.28690338134766
308,-0.017126213759184,0.019732020795345,0.985727488994598,-17.2879161834717,-20.2935199737549,-6.04290056228638,1.80110991001129,0.11907684057951,0.333322376012802,-1.24661564826965,-0.556757092475891,1.17728459835053
309,0.127295717597008,-0.131719633936882,1.08367311954498,-21.3166084289551,-16.9008865356445,-5.22303295135498,1.8013197183609,0.118760712444782,0.333322316408157,-1.50462102890015,-0.398480325937271,1.11396658420563
310,0.175247088074684,-0.304976552724838,1.14719212055206,-24.1357555389404,-10.4228363037109,-4.0857424736023,1.80154800415039,0.117268286645412,0.333415567874908,-1.57327485084534,-0.255279928445816,1.12889993190765
311,0.158884197473526,-0.072383254766464,1.22663652896881,-18.7605304718018,-10.2935438156128,-4.54814147949219,1.80249500274658,0.116787262260914,0.33366397023201,-1.74046421051025,-0.202181488275528,1.11706829071045
312,0.420264631509781,-0.071891635656357,1.20337641239166,-12.1158351898193,-7.66405773162842,-5.45286083221436,1.80370450019836,0.116601869463921,0.340531975030899,-1.87862956523895,-0.186813995242119,1.0896327495575
313,0.336000680923462,0.135165944695473,1.13986968994141,-3.65946435928345,-5.26125431060791,-4.54565477371216,1.80307149887085,0.115151055157185,0.341491520404816,-1.87769377231598,-0.035932037979364,1.02978539466858
314,0.115240849554539,0.007120221853256,1.0900810956955,3.89229273796082,-3.05353188514709,-4.10764789581299,1.80382299423218,0.114059373736382,0.342563956975937,-1.75386917591095,-0.018636593595147,1.02933323383331
315,0.14008030295372,0.001399537897669,0.965922594070435,12.7038068771362,-0.575761795043945,-3.1384654045105,1.80334162712097,0.113471075892448,0.339599609375,-1.70988512039185,0.046463541686535,0.964687943458557
316,0.040058486163616,0.027065979316831,0.943853914737701,15.6648406982422,-0.223706543445587,-1.73201036453247,1.80334055423737,0.113086961209774,0.340421110391617,-1.61063003540039,0.050429772585631,0.931937754154205
317,-0.042810648679733,0.024351924657822,0.91290283203125,21.1999607086182,-1.59847819805145,-1.31645250320435,1.8041490316391,0.112840101122856,0.341175645589828,-1.40165722370148,0.024324033409357,0.943021237850189
318,0.068653382360935,0.113327853381634,0.841267704963684,24.8843612670898,-2.08949398994446,-0.68148410320282,1.80517780780792,0.111811079084873,0.339738368988037,-1.05117201805115,-0.011888079345226,0.980372726917267
319,-0.110747642815113,0.018271181732416,0.811534345149994,27.176477432251,-7.78443050384522,0.19985842704773,1.8045871257782,0.110985554754734,0.340103715658188,-0.818482995033264,0.106323406100273,0.947488069534302
320,-0.143871977925301,0.141879692673683,0.826832413673401,27.0990924835205,-11.8900756835938,-0.195046916604042,1.80439043045044,0.111782558262348,0.340406507253647,-0.732777416706085,0.227986663579941,0.910992860794067
321,-0.035162452608347,0.299130409955978,0.865612387657166,25.5715217590332,-11.8000087738037,-0.710457682609558,1.80765640735626,0.111750453710556,0.340407520532608,-0.357073932886124,0.108814805746079,1.02226054668427
322,-0.065533377230167,0.180181592702866,0.927203893661499,20.1339797973633,-10.6735458374023,-1.45931649208069,1.80982410907745,0.111909285187721,0.331979006528854,-0.152295008301735,0.052309077233076,1.06820678710938
323,0.045642536133528,0.104669407010078,1.00246453285217,16.5423145294189,-9.28602504730225,-2.94913029670715,1.80877184867859,0.110804326832294,0.331480473279953,-0.010996583849192,0.265960425138473,0.991875350475311
324,0.00349507201463,0.14579950273037,1.07340431213379,9.52565860748291,-7.10210657119751,-3.12395763397217,1.8089439868927,0.110705077648163,0.330994218587875,0.042587462812662,0.351901262998581,0.949799239635468
325,0.044242408126593,-0.129383593797684,1.11096560955048,6.97581911087036,-6.08230257034302,-3.39511203765869,1.80925607681274,0.111660540103912,0.327157646417618,-0.024715526029468,0.399993866682053,0.905490279197693
326,0.189980119466782,-0.181243196129799,1.01155269145966,2.28479409217834,-6.69486236572266,-2.8029043674469,1.81039226055145,0.111572630703449,0.326530367136002,0.020399061962962,0.419300019741058,0.891669392585754
327,0.540400981903076,-0.168203756213188,1.1346343755722,-1.69208824634552,-2.66937470436096,-3.02312183380127,1.8099889755249,0.1106086820364,0.325951397418976,0.057073973119259,0.531294763088226,0.848836600780487
328,0.482669532299042,-0.316706448793411,1.10489392280579,1.17799615859985,-2.47568249702454,-2.98011994361877,1.8105400800705,0.110543824732304,0.3221575319767,0.05623272433877,0.545563757419586,0.821625232696533
329,0.273941874504089,-0.316238284111023,1.0393043756485,3.8723087310791,-1.94711744785309,-2.75059366226196,1.81197011470795,0.11132999509573,0.321556568145752,0.026830231770873,0.502143144607544,0.810203969478607
330,0.278841406106949,-0.282676458358765,1.02380847930908,2.23666000366211,-0.85944926738739,-2.91888189315796,1.81074464321136,0.11078754067421,0.320997387170792,0.060531415045261,0.667180240154266,0.761372268199921
331,0.089297123253346,-0.353051602840424,1.03676283359528,4.5042405128479,-1.39289140701294,-2.29069018363953,1.80966007709503,0.110152989625931,0.313506513834,0.109829522669315,0.787829101085663,0.723683476448059
332,0.150288447737694,-0.250821173191071,0.976093471050262,7.64547348022461,-0.837842404842377,-2.02908825874329,1.80946731567383,0.109511665999889,0.312493026256561,0.219478532671928,0.840889275074005,0.700293362140656
333,0.349268883466721,-0.28530877828598,0.963891565799713,7.02057933807373,0.979702532291412,-2.81401038169861,1.80945312976837,0.108899801969528,0.31146028637886,0.333087414503098,0.854670703411102,0.666627168655396
334,0.757996916770935,-0.411285668611527,1.00105738639832,8.49843883514404,1.64216113090515,-1.33369195461273,1.80942595005035,0.109129771590233,0.310450851917267,0.384444981813431,0.868995845317841,0.656439781188965
335,0.608438789844513,-0.320176422595978,0.994662523269653,10.9838037490845,5.6814980506897,-2.79582595825195,1.80959331989288,0.10716138780117,0.306603074073791,0.634399890899658,0.811162054538727,0.60751211643219
336,0.234851568937302,-0.310520082712173,1.01013493537903,11.0202808380127,9.67268371582031,-2.51198220252991,1.81182670593262,0.107128977775574,0.30547758936882,0.718490779399872,0.534311056137085,0.581025779247284
337,0.156494006514549,-0.104591205716133,0.964377701282501,11.8584794998169,10.5049562454224,-2.17227935791016,1.81168913841248,0.105256326496601,0.30416813492775,0.946989893913269,0.463805824518204,0.542546808719635
338,0.165175870060921,-0.240472942590713,1.0458265542984,9.94057464599609,10.078558921814,-2.47432327270508,1.81247651576996,0.105501621961594,0.30222937464714,0.981229186058044,0.314416199922562,0.526137948036194
339,0.131614074110985,-0.357471168041229,1.19064426422119,6.9392352104187,5.91454887390137,-1.76604688167572,1.81291675567627,0.104986719787121,0.301066368818283,1.04945886135101,0.232297942042351,0.509233832359314
340,0.121141411364079,-0.195769965648651,1.2053074836731,4.28452682495117,4.31381988525391,-0.605675876140595,1.81255841255188,0.104988604784012,0.300162464380264,1.05573952198029,0.263989746570587,0.519599735736847
341,0.127321273088455,-0.019904876127839,1.07867813110352,-1.40967321395874,-2.31682682037354,-0.861081898212433,1.81245720386505,0.105357728898525,0.299607962369919,0.981455326080322,0.330554038286209,0.528888821601868
342,-0.014815726317465,0.057420685887337,1.05006384849548,-5.94281339645386,-4.3885383605957,-0.641816079616547,1.81841671466827,0.094738058745861,0.298256546258926,1.53667569160461,-0.337760716676712,0.259908348321915
343,0.01704097352922,0.154732689261436,1.12716841697693,-8.76665019989014,-3.84234881401062,0.524161398410797,1.81963741779327,0.094696447253227,0.297672957181931,1.35051786899567,-0.326888859272003,0.265046983957291
344,-0.016044976189733,0.433073967695236,1.01777756214142,-5.41458559036255,-8.14270114898682,0.816378533840179,1.81935954093933,0.09611039608717,0.297634065151215,1.14411950111389,-0.084511823952198,0.337319284677505
345,-0.003686719574034,0.073625266551972,0.953318774700165,-8.78102493286133,-10.3210725784302,1.10597932338715,1.81896960735321,0.09695778042078,0.291599065065384,0.976057648658752,0.172553151845932,0.403867721557617
346,-0.090187788009644,0.011239955201745,0.888744115829468,-9.39888858795166,-14.3521347045898,0.695323824882507,1.81826400756836,0.095443286001682,0.290558964014053,1.03756999969482,0.487311869859695,0.46187886595726
347,0.037803534418345,-0.00233967602253,0.848343014717102,-6.57589483261108,-13.5736141204834,0.589444220066071,1.81885516643524,0.096045032143593,0.289672344923019,0.815173923969269,0.60959404706955,0.471805274486542
348,0.016960931941867,-0.039305448532105,0.897291660308838,-4.85004329681397,-9.97798919677734,1.51091587543488,1.81959366798401,0.095519907772541,0.286721527576447,0.708585321903229,0.684462606906891,0.478160858154297
349,0.243525549769402,-0.101674981415272,1.18547761440277,-6.55059003829956,-3.79676604270935,1.78069710731506,1.81955325603485,0.095865458250046,0.285525470972061,0.582081198692322,0.79693740606308,0.531797647476196
350,0.037307050079107,-0.156076923012733,1.18388533592224,-6.82333993911743,0.543594002723694,2.8006157875061,1.81957018375397,0.094158694148064,0.284373164176941,0.617125034332275,0.825904488563538,0.563540637493133
351,0.065638333559036,-0.067093506455422,1.15220654010773,-10.592830657959,6.84420824050903,4.06794452667236,1.8200808763504,0.095242917537689,0.280562996864319,0.32961118221283,0.741960525512695,0.625611245632172
352,0.183363661170006,0.002520420355722,1.20826065540314,-15.479962348938,8.29061031341553,5.26455450057983,1.82057785987854,0.094795510172844,0.279639273881912,0.141478106379509,0.631220459938049,0.679097056388855
353,-0.009723416529596,0.022406168282032,1.10686790943146,-15.011697769165,9.25067234039307,6.46468830108643,1.82040143013001,0.092892073094845,0.278823018074036,0.113587200641632,0.586085021495819,0.744724273681641
354,0.096615239977837,0.130055621266365,1.1403900384903,-13.77379322052,11.0678930282593,8.47359752655029,1.82112061977386,0.093204334378243,0.278208553791046,-0.140953585505486,0.427167773246765,0.83371764421463
355,-0.084148496389389,0.306462705135345,1.15041661262512,-9.69283485412598,7.95530509948731,8.77913188934326,1.82154130935669,0.091390773653984,0.278658330440521,-0.146264746785164,0.330046325922012,0.899783372879028
356,0.074803806841374,0.331194400787354,0.99489176273346,-4.26035928726196,2.64178848266602,9.25594806671143,1.82123792171478,0.092341266572476,0.278340876102447,-0.294828116893768,0.40482571721077,1.03916728496552
357,0.099649779498577,0.109418042004108,0.947064161300659,4.1422266960144,-0.746680676937103,10.1691904067993,1.82065868377686,0.091660149395466,0.277949690818787,-0.216741994023323,0.518877029418945,1.15711760520935
358,0.01627535186708,0.112333327531815,0.940822243690491,10.3975925445557,-5.99723625183106,9.68393802642822,1.82031786441803,0.090496450662613,0.273321658372879,-0.039956957101822,0.635489642620087,1.25048875808716
359,-0.008028162643313,0.201495915651321,0.984671413898468,14.0698413848877,-10.2002201080322,9.10666942596436,1.81973791122437,0.089860454201698,0.272579729557037,0.112674333155155,0.821014404296875,1.34835028648376
360,-0.057478550821543,0.29842820763588,0.920927941799164,18.7398376464844,-12.3987865447998,8.2670373916626,1.82023274898529,0.089372128248215,0.27188840508461,0.272748649120331,0.883327424526215,1.42773067951202
361,0.015643279999495,0.023914985358715,0.947632074356079,25.1203136444092,-10.8545484542847,8.63097381591797,1.8202052116394,0.089487582445145,0.268070042133331,0.463827759027481,1.00053954124451,1.52583992481232
362,0.137440070509911,-0.191894978284836,0.926807463169098,29.6656475067139,-6.04820585250855,7.23955678939819,1.81982254981995,0.089209824800491,0.267047852277756,0.723279476165772,1.09133231639862,1.61244487762451
363,-0.011998669244349,-0.026858992874622,1.06198918819428,29.7593193054199,2.59896349906921,7.97920179367065,1.81993162631989,0.088048033416271,0.266015499830246,1.04779756069183,1.018878698349,1.68228793144226
364,0.212746426463127,-0.306946218013763,1.07938241958618,26.2227115631104,11.9135217666626,8.55462551116943,1.82073032855988,0.088821284472942,0.262459695339203,1.16501307487488,0.804581165313721,1.78517329692841
365,0.209555566310883,-0.187405034899712,1.19720089435577,15.9915618896484,17.6059284210205,8.18428421020508,1.82110941410065,0.088391147553921,0.26155349612236,1.29281854629517,0.574695825576782,1.865398645401
366,0.397782415151596,-0.175942659378052,1.22770500183105,4.42149353027344,21.3814811706543,6.96924495697022,1.8212810754776,0.089018858969212,0.260961979627609,1.22759675979614,0.356536775827408,1.95723009109497
367,0.225399643182754,-0.013965860009194,1.13819491863251,-4.56667947769165,21.8830585479736,4.57185173034668,1.82243537902832,0.08899936079979,0.260476469993591,1.09511435031891,-0.008970104157925,1.9883861541748
368,-0.023542473092675,0.088832184672356,1.09005773067474,-10.1110877990723,20.1959095001221,3.27356863021851,1.82235789299011,0.089029349386692,0.26344433426857,0.946488261222839,-0.169441238045692,2.03952813148499
369,0.160317927598953,0.01751103810966,0.997933506965637,-12.5345764160156,16.2774200439453,1.1700587272644,1.82263541221619,0.088334977626801,0.263225138187408,0.83939516544342,-0.343476116657257,2.04471611976624
370,0.005565155763179,0.033162903040648,1.0331392288208,-13.3562059402466,7.21349954605103,0.190822765231133,1.82149958610535,0.088539376854897,0.263247311115265,0.725704908370972,-0.205968871712685,2.0970721244812
371,-0.056954946368933,-0.036870211362839,0.998758494853973,-11.252459526062,0.787695288658142,-2.13979125022888,1.82151222229004,0.08759680390358,0.267842471599579,0.645940124988556,-0.223337233066559,2.06839823722839
372,0.20648843050003,-0.151891827583313,0.986000418663025,-5.17706727981567,-7.24141216278076,-3.75388216972351,1.8212696313858,0.087432056665421,0.268014043569565,0.563005447387695,-0.119867168366909,2.04033207893372
373,0.326790124177933,-0.194275245070457,1.10480153560638,-1.26739823818207,-11.837965965271,-5.50237369537354,1.820880651474,0.085909605026245,0.268159061670303,0.696333289146423,0.053178526461125,1.995356798172
374,0.174140349030495,-0.065885618329048,1.20213675498962,3.76472568511963,-16.0948314666748,-6.19884157180786,1.82071530818939,0.086341224610806,0.269111216068268,0.603409051895142,0.212377056479454,1.93729281425476
375,0.07854001224041,-0.079636663198471,1.22516417503357,7.95627355575562,-14.6113548278809,-4.42759370803833,1.82167637348175,0.083578631281853,0.269651681184769,0.893028855323792,0.198606133460999,1.85147035121918
376,0.01855899579823,0.004364924505353,1.15223586559296,14.2797136306763,-14.5160503387451,-3.3241138458252,1.82155978679657,0.082889951765537,0.270411133766174,1.034783244133,0.364403456449509,1.82534551620483
377,-0.009904079139233,0.066435322165489,1.20863676071167,15.1932229995728,-10.5567245483398,-0.777310431003571,1.82204830646515,0.082959100604057,0.271571606397629,1.04072248935699,0.383824408054352,1.79447948932648
378,-0.046085599809885,0.148988485336304,1.13891994953156,15.1123428344727,-7.67151546478272,0.309296727180481,1.82180845737457,0.082242161035538,0.272783100605011,1.21992492675781,0.519925057888031,1.81144058704376
379,-0.099387846887112,0.157852813601494,1.08059656620026,13.0360927581787,-10.4692611694336,0.711285412311554,1.8218160867691,0.081429101526737,0.27397757768631,1.36516618728638,0.62413877248764,1.81785345077515
380,-0.060659572482109,0.062492951750755,0.951125204563141,9.11500072479248,-7.37399339675903,0.146007150411606,1.82237029075623,0.080984182655811,0.275347828865051,1.3700875043869,0.615655481815338,1.79828584194183
381,0.119591161608696,-0.062003247439861,0.863271534442902,5.2324275970459,-6.68841028213501,1.75738501548767,1.82245993614197,0.080570347607136,0.275340348482132,1.39422512054443,0.677439630031586,1.81274962425232
382,0.51040780544281,-0.192368596792221,0.889502823352814,1.82609808444977,-0.935783803462982,0.543419420719147,1.82330596446991,0.079041838645935,0.276321411132812,1.43309879302979,0.556754648685455,1.77796578407288
383,0.261402666568756,-0.26589047908783,1.00247120857239,-1.1169821023941,4.15208435058594,0.088471360504627,1.8234361410141,0.079076685011387,0.277361661195755,1.34052014350891,0.525480270385742,1.78646171092987
384,0.06742338091135,-0.063842199742794,1.0323783159256,-2.90390419960022,8.69398498535156,-0.804302215576172,1.82371985912323,0.077587962150574,0.280157476663589,1.37793385982513,0.414277344942093,1.76877808570862
385,0.193121895194054,-0.093592450022698,1.10576593875885,-4.51788425445557,12.583345413208,-0.215751484036446,1.82429444789886,0.076081983745098,0.281235575675964,1.36960577964783,0.226486772298813,1.74528443813324
386,0.03640316799283,-0.023325046524406,1.05550277233124,-5.47094440460205,10.8498096466064,0.408109605312347,1.82486438751221,0.073359213769436,0.282204329967499,1.48116588592529,0.069282911717892,1.71952474117279
387,-0.070998087525368,-0.108043506741524,1.1636198759079,-4.77007532119751,4.27204751968384,-0.961334466934204,1.82529282569885,0.072885327041149,0.283642411231995,1.35077905654907,0.022477736696601,1.70839631557465
388,-0.085540883243084,0.017410730943084,1.26781022548676,-10.1992950439453,-6.26974630355835,-1.03504180908203,1.82528233528137,0.070943713188171,0.287718713283539,1.37701594829559,0.139768674969673,1.71188187599182
389,0.077744327485561,0.128362059593201,1.17181086540222,-9.58320236206055,-11.1961793899536,-1.6236035823822,1.82504630088806,0.071242965757847,0.289795339107513,1.1659529209137,0.32913663983345,1.72777962684631
390,-0.03003403916955,0.026193218305707,1.15009236335754,-11.4769821166992,-14.7666244506836,-1.52732062339783,1.8255375623703,0.070251069962978,0.29188084602356,1.01424443721771,0.418192595243454,1.69304203987122
391,-0.072238340973854,0.049119595438242,1.15641558170319,-8.43421173095703,-13.3573379516602,-0.158534795045853,1.82601666450501,0.070512361824513,0.293156564235687,0.770480096340179,0.506473124027252,1.67708611488342
392,-0.115652002394199,-0.086106792092323,1.19873583316803,-4.97644424438477,-13.5529146194458,0.234290897846222,1.8261034488678,0.069649450480938,0.295443534851074,0.730678081512451,0.667113065719605,1.68943321704865
393,-0.008214966394007,0.023393124341965,1.25005757808685,-3.96258687973022,-13.1974964141846,1.49375593662262,1.82560288906097,0.066965907812119,0.297766000032425,0.93395072221756,0.898576319217682,1.73011577129364
394,0.026730574667454,0.040551781654358,1.16356098651886,0.857090950012207,-9.14240169525147,1.90717828273773,1.82532548904419,0.06633023172617,0.305033087730408,0.895818948745727,1.03564751148224,1.76888811588287
395,0.155109152197838,-0.163995712995529,1.10835409164429,1.60475957393646,-4.94829797744751,3.17597723007202,1.82563197612762,0.065313965082169,0.308113664388657,0.880333602428436,1.03619873523712,1.79194319248199
396,0.502601206302643,-0.042765680700541,0.966729998588562,2.05797791481018,3.07670068740845,3.58390331268311,1.82561469078064,0.063618123531342,0.311109304428101,0.950841248035431,0.990308880805969,1.82508087158203
397,0.310547053813934,-0.076566807925701,0.870906054973602,0.804160475730896,13.7883749008179,3.36442494392395,1.82611572742462,0.063269123435021,0.310237497091293,0.881249010562897,0.795264661312103,1.85558795928955
398,0.086860433220863,-0.123024009168148,0.76583606004715,-1.05325925350189,20.111141204834,3.86380624771118,1.82644546031952,0.063173115253449,0.31289079785347,0.771469593048096,0.571668267250061,1.90507817268372
399,0.139627903699875,0.049212317913771,0.612760663032532,-7.72464084625244,23.5744476318359,4.4605016708374,1.82647693157196,0.061913296580315,0.315156161785126,0.72668993473053,0.343240469694138,1.95294904708862
400,0.120730333030224,0.14132921397686,0.723691821098328,-12.8263912200928,26.392391204834,6.18740606307983,1.82750844955444,0.059855505824089,0.317056357860565,0.649357497692108,-0.039464298635721,1.98047041893005
401,-0.055619638413191,0.026476072147489,0.878607869148254,-17.7355937957764,22.9953231811523,6.21668910980225,1.82718479633331,0.059195052832365,0.311962485313415,0.464701563119888,-0.190051138401032,2.0598475933075
402,-0.00812298245728,-0.233288198709488,0.895758032798767,-22.1517543792725,10.915135383606,6.54195976257324,1.82594394683838,0.059658102691174,0.313406467437744,0.144019082188606,-0.126594334840775,2.16839861869812
403,0.04649418219924,-0.070121645927429,0.792224049568176,-25.105318069458,2.07197189331055,5.50345039367676,1.82598626613617,0.058251682668924,0.314512640237808,-0.071919068694115,-0.155070766806602,2.22040605545044
404,-0.013982712291181,0.107717655599117,0.912011206150055,-23.6771373748779,-1.7699066400528,4.28274202346802,1.82407402992249,0.056506585329771,0.315322428941727,-0.201466530561447,0.071851201355457,2.29149341583252
405,-0.013766258023679,-0.012662178836763,1.04106605052948,-18.1324691772461,-5.45767211914063,1.69337737560272,1.82454228401184,0.056978262960911,0.316388130187988,-0.539103150367737,0.057489637285471,2.30414199829102
406,-0.032609805464745,-0.234069019556046,0.897144556045532,-7.78782415390015,-12.0477867126465,0.418325513601303,1.82504081726074,0.055921766906977,0.317311584949493,-0.61018043756485,0.102246470749378,2.30496120452881
407,-0.06385712325573,0.059278447180986,0.82392692565918,0.370622783899307,-8.87497711181641,0.20287150144577,1.82438957691193,0.054446443915367,0.317692637443542,-0.54625278711319,0.229210063815117,2.30391931533813
408,-0.103987514972687,0.122210033237934,1.01412892341614,10.7072896957397,3.9616060256958,-2.00126123428345,1.8248074054718,0.053154665976763,0.318391472101212,-0.39797830581665,0.124698452651501,2.28236937522888
409,-0.110498502850533,-0.082913964986801,1.06356477737427,20.7068977355957,10.5429744720459,-3.46906208992004,1.82555186748505,0.051937509328127,0.319108247756958,-0.152134969830513,-0.05675033852458,2.25158023834229
410,0.131664395332336,0.0068503995426,0.921173930168152,27.5371494293213,12.5032653808594,-4.96396780014038,1.82550883293152,0.050794705748558,0.319799304008484,0.129635691642761,-0.191154181957245,2.20214653015137
411,0.128102093935013,0.137139216065407,0.821602165699005,24.4707641601562,22.4108905792236,-5.64907693862915,1.82624518871307,0.050576973706484,0.321570098400116,0.283176422119141,-0.490349858999252,2.15032625198364
412,0.00557516515255,0.107905715703964,0.868397653102875,15.1843843460083,24.7129077911377,-5.73681116104126,1.82641708850861,0.049494359642267,0.322032988071442,0.428674578666687,-0.753998279571533,2.09506559371948
413,-0.083475343883038,-0.006608940660954,0.993363082408905,-0.563980877399445,23.8331108093262,-5.8973913192749,1.82652473449707,0.050134856253862,0.322652369737625,0.227620705962181,-0.999182641506195,2.02535176277161
414,0.092921860516071,0.025409325957298,0.902808308601379,-18.8179454803467,17.5204944610596,-4.84786128997803,1.82367718219757,0.049426771700382,0.316689521074295,-0.024451699107885,-0.895896434783935,1.94718074798584
415,-0.012339308857918,0.047018494457007,0.940114617347717,-29.9337120056152,12.0962753295898,-3.50140571594238,1.82388150691986,0.049055598676205,0.3166424036026,-0.364314168691635,-1.04334425926209,1.91150200366974
416,-0.025617297738791,-0.05715487152338,0.917745232582092,-32.5594902038574,5.88146448135376,-2.17237639427185,1.82363831996918,0.048827398568392,0.316529124975205,-0.750632643699646,-1.08754277229309,1.87968182563782
417,-0.017590360715985,-0.266384094953537,0.97332775592804,-27.5032577514648,-3.36772346496582,0.449870198965073,1.82480299472809,0.046892996877432,0.317580074071884,-0.821726143360138,-1.11574840545654,1.94012749195099
418,0.285031259059906,-0.290603637695312,1.03175449371338,-16.0330924987793,-17.6027870178223,3.23810815811157,1.82309031486511,0.047191597521305,0.317571818828583,-1.18160307407379,-0.817539274692535,1.90326523780823
419,0.127066925168037,-0.058881558477879,0.979975879192352,-1.15112173557282,-25.1527614593506,4.05244255065918,1.82336688041687,0.045026976615191,0.317544311285019,-0.938130795955658,-0.552893757820129,2.01006698608398
420,0.00512038776651,-0.096995063126087,0.905640661716461,13.8860845565796,-26.5998020172119,3.6316990852356,1.82293784618378,0.044209595769644,0.317402124404907,-0.813208639621735,-0.267037600278854,2.04020595550537
421,0.097710624337196,0.170258387923241,0.931738972663879,21.7292156219482,-21.5528831481934,3.46233510971069,1.82395660877228,0.04348735883832,0.317041218280792,-0.539719939231873,-0.148804500699043,2.1121461391449
422,0.118505246937275,0.123849406838417,0.948308348655701,29.1127147674561,-15.4359827041626,1.52971661090851,1.82288467884064,0.041467752307654,0.316669136285782,-0.139315351843834,0.095578670501709,2.13078951835632
423,0.118566952645779,-0.100749775767326,0.983150064945221,29.4998779296875,-5.88689756393433,1.22501707077026,1.82319366931915,0.040327947586775,0.316314667463303,0.204548805952072,0.120015718042851,2.15893578529358
424,0.07538352906704,-0.166071593761444,0.997472107410431,24.1417751312256,6.02436351776123,-0.405335515737534,1.82311797142029,0.040927305817604,0.315078139305115,0.239581122994423,0.022368777543306,2.1159176826477
425,0.031413033604622,-0.254946976900101,1.00214672088623,17.8593330383301,12.7894496917725,0.451179534196854,1.82379961013794,0.041023902595043,0.314790189266205,0.332232981920242,-0.173767507076263,2.12055015563965
426,0.129644677042961,-0.086195968091488,0.98855471611023,7.00967216491699,15.2088775634766,-1.03739178180695,1.82476425170898,0.040557384490967,0.314396142959595,0.399193465709686,-0.41204360127449,2.13068985939026
427,-0.030715879052878,-0.019479524344206,0.95646733045578,-4.24820566177368,19.7437782287598,-2.77582168579102,1.82543230056763,0.03948974236846,0.309003591537476,0.426183193922043,-0.647730469703674,2.1287043094635
428,-0.014861766248942,-0.080189950764179,0.976091384887695,-8.05859088897705,17.1147384643555,-2.62389540672302,1.82488524913788,0.038851737976074,0.308318674564362,0.285502463579178,-0.764194071292877,2.08402395248413
429,0.119392953813076,0.125664561986923,0.903694033622742,-11.0535068511963,10.9634428024292,-3.20617485046387,1.82565820217133,0.039484318345785,0.307618141174316,0.004044278990477,-0.95929479598999,2.03270506858826
430,-0.168204888701439,0.100722476840019,0.875804126262665,-11.3950929641724,4.53671836853027,-3.28932595252991,1.82538819313049,0.038749251514673,0.304051131010056,-0.105808481574059,-0.957515120506287,1.99755489826202
431,-0.143711537122726,0.210601881146431,0.967322051525116,-9.51169776916504,-6.30372476577759,-2.97847509384155,1.82410442829132,0.03832371532917,0.302993565797806,-0.27228119969368,-0.781637847423553,1.93197822570801
432,-0.064892813563347,0.181135565042496,1.03819954395294,-2.34903836250305,-12.554347038269,-2.90782594680786,1.82522368431091,0.035390183329582,0.301780134439468,0.091250471770763,-0.673457384109497,2.00932168960571
433,0.026892211288214,-0.000470902392408,1.12542879581451,4.35790920257568,-19.0564975738525,-1.76630079746246,1.82605910301209,0.03623228892684,0.300970494747162,-0.089052438735962,-0.588744819164276,1.94450283050537
434,-0.011003418825567,-0.10919501632452,1.09996032714844,8.99720668792725,-20.8525123596191,-0.860469996929169,1.82467377185822,0.034672010689974,0.300046324729919,0.078900448977947,-0.221310183405876,1.93565952777863
435,0.105759918689728,-0.258610159158707,1.10711276531219,8.17933654785156,-20.8117771148682,1.68311548233032,1.82576417922974,0.033688601106405,0.299167603254318,0.232229858636856,-0.085871383547783,1.98146021366119
436,0.024618778377771,-0.158966138958931,1.11702013015747,8.487229347229,-17.6496925354004,1.25873494148254,1.82750821113586,0.033887591212988,0.298563957214356,0.219396263360977,-0.074680715799332,1.99206912517548
437,0.201169341802597,-0.204224273562431,1.20493900775909,4.42503166198731,-11.5630865097046,2.60428166389465,1.82834422588348,0.033002838492394,0.297417938709259,0.305644333362579,-0.002614007797092,2.03068232536316
438,0.131125703454018,-0.163556054234505,1.21375596523285,0.582655668258667,-4.45488262176514,2.2580418586731,1.82951700687408,0.033452998846769,0.297128796577454,0.162453338503838,-0.05014119297266,2.03026127815247
439,0.160382777452469,-0.119597189128399,1.25498366355896,-4.12128400802612,-5.35845518112183,2.54711389541626,1.82903325557709,0.03335203230381,0.297045946121216,0.03048025816679,0.072983875870705,2.02609372138977
440,0.267417222261429,0.010480300523341,1.28046894073486,-7.5784068107605,-4.47120094299316,1.54716956615448,1.82864856719971,0.033648800104857,0.292604446411133,-0.161955684423447,0.172483012080193,2.00996136665344
441,0.19401428103447,0.114928863942623,1.3333477973938,-5.49185085296631,-9.32305335998535,1.03228533267975,1.83077836036682,0.032502606511116,0.292710512876511,-0.07438500970602,0.121944099664688,2.05575680732727
442,0.07373359054327,0.109549559652805,1.24228739738464,1.33023297786713,-10.076265335083,-1.11678826808929,1.83102762699127,0.031902778893709,0.293094724416733,-0.049349997192621,0.251792401075363,2.04434418678284
443,0.046520967036486,0.065310582518578,1.21614873409271,9.80063915252686,-12.7275638580322,-0.749509036540985,1.83108234405518,0.03005388751626,0.29363289475441,0.203369811177254,0.436690419912338,2.04625940322876
444,0.070262052118778,-0.060583766549826,1.23944652080536,18.2954349517822,-13.1015615463257,-2.26378870010376,1.83075606822968,0.029669718816877,0.292462557554245,0.352414011955261,0.628071546554565,2.01427435874939
445,0.038493704050779,0.108805239200592,1.15892577171326,26.2871990203857,-11.3325452804565,-2.1485424041748,1.83296048641205,0.029062200337648,0.293345808982849,0.646599471569061,0.559919893741608,2.0101535320282
446,0.12131354957819,-0.030904036015272,1.14335918426514,26.5846729278564,-4.05429649353027,-2.42055177688599,1.83238911628723,0.029291890561581,0.294518977403641,0.804948449134827,0.691726267337799,1.97387206554413
447,0.064467370510101,-0.031760174781084,1.11298894882202,23.3059482574463,0.067260779440403,-2.59090280532837,1.83303952217102,0.027565171942115,0.293286263942719,1.15076434612274,0.659793674945831,1.95098948478699
448,-0.015966044738889,-0.161580190062523,1.10917747020721,15.3638849258423,5.34587383270264,-2.40964388847351,1.83416652679443,0.026382736861706,0.29432937502861,1.33731317520142,0.536241054534912,1.929842710495
449,-0.044419679790735,-0.06347169727087,1.17227590084076,3.33655381202698,5.32963371276856,-2.27827453613281,1.83440756797791,0.02602276019752,0.295645177364349,1.3225873708725,0.505769848823547,1.91073608398438
450,0.01176000572741,0.034538563340902,1.14115142822266,-7.1513671875,5.30889129638672,-2.83382725715637,1.83404099941254,0.025684915482998,0.29375758767128,1.20332205295563,0.534119129180908,1.88869917392731
451,-0.008123006671667,-0.071472123265267,1.1141277551651,-19.8226776123047,2.12322974205017,-2.78584575653076,1.83488869667053,0.025277860462666,0.295101642608643,0.954253673553467,0.463741481304169,1.85897672176361
452,-0.005446759052575,0.009813277982175,1.07504117488861,-29.2206115722656,-2.31794166564941,-2.69698262214661,1.8340824842453,0.02421790920198,0.296479552984238,0.698970079421997,0.616373777389526,1.84300029277802
453,-0.048002235591412,-0.10690975189209,1.0260283946991,-34.6808471679687,-5.88039970397949,-3.02502369880676,1.83376228809357,0.025328742340207,0.298057943582535,0.201558992266655,0.75107741355896,1.84160804748535
454,-0.035992182791233,0.010930510237813,1.00507545471191,-35.1088752746582,-13.031421661377,-2.37942934036255,1.83411502838135,0.02305044606328,0.286562651395798,-0.017195291817188,0.795507073402405,1.78844571113586
455,0.083942905068398,-0.056395038962364,1.05005931854248,-26.0681266784668,-8.79129886627197,-2.91488671302795,1.83350014686584,0.021186610683799,0.28724804520607,-0.184584870934486,0.962798595428467,1.75716114044189
456,-0.027733292430639,0.264788448810577,0.994775474071503,-17.9613380432129,-11.0508127212524,-2.18172359466553,1.83421230316162,0.019657466560602,0.288018882274628,-0.315744549036026,0.99158376455307,1.7155681848526
457,-0.036600437015295,0.346223831176758,1.0296915769577,-6.89938068389893,-5.87244987487793,-1.94152128696442,1.83400547504425,0.019286947324872,0.284121155738831,-0.410688459873199,1.08485162258148,1.70290231704712
458,-0.053623337298632,0.196614772081375,1.1015340089798,4.63497543334961,-4.69191026687622,-1.41607558727264,1.83531153202057,0.01955639757216,0.284752011299133,-0.437688499689102,1.0194206237793,1.7031055688858
459,0.057020142674446,0.128297969698906,1.07896137237549,17.3101463317871,-1.27984237670898,-1.42614758014679,1.83513510227203,0.018547937273979,0.285368949174881,-0.235854819417,1.06840038299561,1.68889856338501
460,-0.032044027000666,0.038816001266241,0.949071109294891,25.2526397705078,-2.00623416900635,-0.221074044704437,1.83484494686127,0.017701245844364,0.2802414894104,0.051096860319376,1.11923098564148,1.68361282348633
461,0.030398663133383,0.115949332714081,0.887724876403809,28.1658420562744,1.58538198471069,0.197547301650047,1.83478152751923,0.016363689675927,0.280405700206757,0.368456304073334,1.10954928398132,1.67487955093384
462,-0.072271354496479,0.103937186300755,0.868033468723297,24.2755947113037,1.15635967254639,0.346994251012802,1.83489143848419,0.015405745245516,0.280470311641693,0.61697918176651,1.08874189853668,1.67470991611481
463,-0.027669448405504,0.149499073624611,0.772880434989929,17.7241458892822,0.869149625301361,-0.717859804630279,1.83529198169708,0.016183447092772,0.276750862598419,0.669391572475433,1.05358278751373,1.6997082233429
464,0.043177355080843,0.005875657778233,0.799342036247253,6.00617551803589,4.67939949035645,-1.4681841135025,1.83586990833282,0.016025265678763,0.276286482810974,0.667788088321686,0.976578772068024,1.6950808763504
465,-0.045329697430134,0.044323854148388,0.85941469669342,-4.28278589248657,0.39851102232933,-3.50358104705811,1.83606219291687,0.015731528401375,0.275662481784821,0.580653309822083,0.96735805273056,1.66831064224243
466,-0.067756697535515,0.023417625576258,0.916162312030792,-12.402889251709,1.53203892707825,-5.24997329711914,1.83645224571228,0.016221862286329,0.275012582540512,0.360688596963882,0.951934278011322,1.6397453546524
467,0.013684711419046,0.139613404870033,0.96198970079422,-20.2155284881592,-3.49367046356201,-6.62701988220215,1.83598124980927,0.013325869105756,0.268289268016815,0.328875511884689,1.00154268741608,1.51320028305054
468,0.067842692136765,0.08860456943512,0.996047616004944,-19.4974250793457,1.62286686897278,-7.83861589431763,1.83601069450378,0.011500378139317,0.26709446310997,0.224201530218124,0.968517065048218,1.41310119628906
469,0.098509676754475,0.214497745037079,0.987226188182831,-12.6965084075928,4.44020175933838,-6.58343887329102,1.83571290969849,0.011425494216383,0.266028076410294,0.076134480535984,0.962024211883545,1.37010860443115
470,-0.026584804058075,0.211034461855888,1.04322230815887,-1.07733583450317,9.78279399871826,-5.91543102264404,1.83602237701416,0.012441859580577,0.261107742786408,-0.032299317419529,0.860787570476532,1.35272312164307
471,0.065420396625996,0.188854023814201,1.04894018173218,6.10207176208496,11.882791519165,-5.5774130821228,1.83602607250214,0.010366137139499,0.25980868935585,0.160250216722488,0.718687236309052,1.26878392696381
472,0.043614871799946,0.165366008877754,1.06572389602661,16.3457164764404,10.9762668609619,-3.826984167099,1.83667457103729,0.008474110625684,0.258525341749191,0.431802690029144,0.513080537319183,1.20620584487915
473,0.020577438175678,0.056781243532896,1.08676898479462,23.5527973175049,10.556450843811,-2.73875570297241,1.83659589290619,0.007014540489763,0.256461292505264,0.732020854949951,0.411051511764526,1.16766119003296
474,0.048152443021536,-0.00291373161599,1.06973826885223,27.0978507995605,9.84399032592773,-1.67904353141785,1.83646929264069,0.00518169766292,0.25522318482399,1.0860161781311,0.316565155982971,1.13767373561859
475,0.605103373527527,-0.382196635007858,0.900717735290527,25.7811393737793,9.52194213867188,0.219343423843384,1.83582079410553,0.005352221895009,0.254315346479416,1.22853469848633,0.319021970033646,1.17374932765961
476,0.34349337220192,-0.345267623662949,0.987660586833954,17.4645347595215,8.28578281402588,3.21381068229675,1.83497393131256,0.00423467811197,0.253097862005234,1.39935481548309,0.332579910755158,1.20697140693665
477,0.337275981903076,-0.193540707230568,1.17581188678741,2.24574065208435,10.7225608825684,4.04272985458374,1.83512032032013,0.004265835043043,0.251378327608109,1.29088068008423,0.228007018566132,1.26763939857483
478,0.523530185222626,-0.125712260603905,1.10525977611542,-12.4395112991333,3.97132778167725,5.68922472000122,1.83546304702759,0.003710597055033,0.250474065542221,1.09554803371429,0.12886019051075,1.32923412322998
479,0.013635335490108,0.09236216545105,1.18869650363922,-27.7130146026611,2.13076949119568,7.01401805877686,1.83381474018097,0.000742338248529,0.249266013503075,1.03993368148804,0.302361518144608,1.39900934696198
480,0.463261514902115,-0.05425824970007,1.07374465465546,-34.3112564086914,-0.668114542961121,7.21823740005493,1.83400297164917,0.002742394572124,0.247538626194,0.383706957101822,0.269223302602768,1.51498818397522
481,0.339119017124176,-0.075726419687271,0.992911756038666,-33.8893013000488,-1.82386982440949,8.87367534637451,1.83312964439392,-0.000706466904376,0.246597662568092,0.318952858448029,0.339695930480957,1.57896637916565
482,0.191629499197006,-0.290036350488663,1.14443325996399,-32.2043151855469,1.94956612586975,8.57824993133545,1.83321022987366,-0.000678856158629,0.246140673756599,-0.127412885427475,0.26520112156868,1.67159163951874
483,0.124554686248302,-0.070864111185074,1.21744358539581,-24.9346466064453,5.30931520462036,8.93729686737061,1.83326959609985,-0.003274176735431,0.245900049805641,-0.195809692144394,0.145881369709969,1.7375864982605
484,-0.067700512707234,0.100994653999805,1.16338133811951,-15.2981967926025,8.77937984466553,9.13221740722656,1.83307063579559,-0.004194876179099,0.245629087090492,-0.354617893695831,0.048170782625675,1.83064699172974
485,0.123105302453041,-0.054928276687861,1.25404334068298,-9.55315971374512,13.2790231704712,9.61273288726807,1.83374452590942,-0.005604387260973,0.245530590415001,-0.396334826946259,-0.207783296704292,1.90978145599365
486,0.085123851895332,-0.040755186229944,1.27406644821167,0.560068607330322,17.3796424865723,9.76741790771484,1.83402407169342,-0.005532340146601,0.245800316333771,-0.513360142707825,-0.433795988559723,2.01472616195679
487,0.031628917902708,0.19918854534626,1.20764982700348,8.65287208557129,18.6396350860596,11.8352279663086,1.83397567272186,-0.007690162397921,0.246182188391685,-0.242128118872642,-0.615945219993591,2.13149809837341
488,-0.036447621881962,0.31138551235199,1.17793953418732,15.1032791137695,16.7816123962402,11.9907836914063,1.8338428735733,-0.008473547175527,0.24679072201252,-0.126661092042923,-0.776233851909637,2.24486947059631
489,-0.104513980448246,0.231439605355263,1.11249566078186,17.3787651062012,14.9644136428833,10.6306638717651,1.8336021900177,-0.009403337724507,0.247531428933144,0.038148280233145,-0.896174430847168,2.35008192062378
490,-0.002726922975853,0.169235676527023,1.03153336048126,19.7191429138184,9.99761867523193,10.9416303634644,1.83375656604767,-0.010383071377874,0.247378140687942,0.236168846487999,-1.00892496109009,2.46352648735046
491,0.00543304765597,0.164867773652077,1.06738781929016,15.1289968490601,4.02330923080444,11.3676052093506,1.83420789241791,-0.011220784857869,0.248153269290924,0.362817347049713,-1.08808851242065,2.57956647872925
492,-0.09282748401165,0.181612849235535,1.07847952842712,11.3840847015381,-3.92519378662109,11.0538139343262,1.83420562744141,-0.011999380774796,0.249110043048859,0.415166884660721,-1.0270049571991,2.68347191810608
493,-0.088427402079105,0.356210321187973,0.995681583881378,4.41518068313599,-14.6179990768433,12.9469413757324,1.83339250087738,-0.012816738337278,0.251515716314316,0.354585886001587,-0.797694146633148,2.78128004074097
494,-0.043120805174112,0.226896405220032,0.968769788742065,-2.52278399467468,-16.5957317352295,12.9069700241089,1.83311820030212,-0.013573491945863,0.252583146095276,0.266135066747665,-0.610436022281647,2.8988733291626
495,-0.125808045268059,0.232293784618378,0.950370669364929,-8.3995361328125,-20.0900611877441,14.7777299880981,1.83260035514832,-0.014192836359143,0.253657460212708,0.090081691741943,-0.373699694871902,3.01879143714905
496,-0.052106522023678,0.151457071304321,0.988826334476471,-9.3134126663208,-21.7195510864258,16.8734531402588,1.83419811725616,-0.014831202104688,0.251645475625992,0.062335189431906,-0.32989901304245,3.21297001838684
497,-0.041657086461783,0.060750983655453,1.04017949104309,-5.02808952331543,-18.5778675079346,16.8170986175537,1.83470475673676,-0.015887752175331,0.252426236867905,0.095482341945171,-0.148202985525131,3.41209268569946
498,-0.054628688842058,0.093310087919235,0.979175269603729,-2.52828669548035,-17.6175079345703,19.1274013519287,1.83360910415649,-0.016765303909779,0.253329664468765,0.035815138369799,0.16622793674469,3.57727670669556
499,0.028793107718229,0.025720331817865,1.05869102478027,2.97582936286926,-13.2319507598877,19.2583236694336,1.83406162261963,-0.017509603872895,0.254241734743118,0.069280557334423,0.252721697092056,3.76433682441711
500,0.099016457796097,-0.059275403618813,1.08581352233887,8.12143898010254,-8.3476676940918,16.9717540740967,1.83686316013336,-0.019435588270426,0.255293607711792,0.488637953996658,0.116837367415428,4.02391195297241
501,0.122098490595818,-0.163310721516609,1.14459037780762,12.7021627426147,-4.57590532302856,14.3911323547363,1.83781063556671,-0.020593404769898,0.256301254034042,0.625636398792267,0.093573212623596,4.16845417022705
502,0.08403155207634,-0.108999989926815,1.14624357223511,10.8962869644165,-0.605764865875244,12.1872406005859,1.83693194389343,-0.021630754694343,0.257687956094742,0.668270766735077,0.235647678375244,4.26283502578735
503,0.042658533900976,-0.148108258843422,1.07534348964691,9.45950126647949,2.67429065704346,8.31239128112793,1.83710253238678,-0.022875031456351,0.258707046508789,0.750947594642639,0.215473979711533,4.34621477127075
504,0.083326749503613,-0.092103019356728,0.946592926979065,2.75659584999084,1.51725709438324,6.44774580001831,1.83708930015564,-0.023384479805827,0.260191828012466,0.638684630393982,0.18201844394207,4.38730430603027
505,-0.142007738351822,-0.085310213267803,0.938317656517029,-5.04932594299316,6.326256275177,3.67899346351624,1.83766794204712,-0.024900041520596,0.261322051286697,0.63896256685257,0.067764580249786,4.42757892608643
506,-0.044833287596703,-0.017437145113945,0.915687918663025,-10.2809038162231,9.59261035919189,0.260048538446426,1.83876252174377,-0.025252474471927,0.263866603374481,0.382526367902756,-0.168832510709763,4.41239929199219
507,-0.005541463848203,0.132350474596024,0.989082098007202,-18.5234642028809,11.322642326355,0.101359710097313,1.83913946151733,-0.024715671315789,0.265290826559067,-0.028330314904451,-0.302862137556076,4.36214923858643
508,-0.113706789910793,0.320037364959717,0.991367936134338,-20.5869655609131,13.367190361023,-4.16127014160156,1.8401415348053,-0.028927149251103,0.266385942697525,0.30555734038353,-0.385846942663193,4.38321304321289
509,0.104626573622227,0.11652497947216,1.14837527275085,-18.4512577056885,13.0591621398926,-5.41616153717041,1.84039199352264,-0.028491452336311,0.268162459135056,-0.119131602346897,-0.509319007396698,4.28338432312012
510,0.120780944824219,-0.149861812591553,1.17294645309448,-11.854772567749,7.79661417007446,-9.3151969909668,1.84039461612701,-0.030218910425902,0.270233809947968,-0.121294431388378,-0.494373053312302,4.2055082321167
511,0.24043995141983,0.001549756503664,0.964085578918457,-5.63414144515991,2.32964158058166,-10.4629163742065,1.84058165550232,-0.031192503869534,0.271779924631119,-0.199161469936371,-0.515916466712952,4.09678888320923
512,0.068374909460545,-0.005394527222961,0.928798198699951,-1.30166161060333,6.20103120803833,-10.8923225402832,1.8411238193512,-0.032269041985273,0.273226171731949,-0.209033206105232,-0.592621028423309,3.98214316368103
513,0.117301188409328,0.040172062814236,1.03196215629578,1.48472785949707,7.2559757232666,-12.4931116104126,1.84170746803284,-0.033606912940741,0.276644676923752,-0.147216364741325,-0.642775177955627,3.86144685745239
514,0.094745941460133,-0.017704453319311,1.13821458816528,4.02872133255005,1.07440030574799,-13.2489337921143,1.84105825424194,-0.03479652479291,0.278386741876602,-0.112427845597267,-0.513155698776245,3.72034406661987
515,0.193006977438927,-0.048656277358532,1.02892518043518,2.90160703659058,-3.48676562309265,-13.0960073471069,1.8414945602417,-0.035837564617395,0.280112475156784,-0.10501965880394,-0.481227993965149,3.58705544471741
516,0.114054016768932,-0.140549302101135,0.894665479660034,-1.84603381156921,-7.75788545608521,-13.1999816894531,1.84279358386993,-0.037326350808144,0.280607938766479,-0.037532478570938,-0.479195654392242,3.4772629737854
517,0.067231260240078,0.034740090370178,0.876996278762817,-4.53151750564575,-9.20946407318115,-14.3743314743042,1.84279501438141,-0.03803788125515,0.28222519159317,-0.157061457633972,-0.358666151762009,3.31213068962097
518,0.057959228754044,0.017899606376886,0.970061361789703,-3.90198802947998,-6.52152109146118,-14.5843315124512,1.84297406673431,-0.038754168897867,0.283748835325241,-0.246297121047974,-0.264105051755905,3.15025639533997
519,0.249527364969254,-0.006993143353611,1.06724846363068,-3.45339918136597,-8.72515773773193,-14.0103139877319,1.84450042247772,-0.039719950407744,0.285151481628418,-0.233536913990974,-0.268163710832596,3.02617287635803
520,0.170393154025078,-0.100983455777168,0.973641335964203,3.63423299789429,-8.47201347351074,-13.4903554916382,1.84366643428803,-0.040357150137425,0.284835755825043,-0.301466554403305,-0.069895513355732,2.85805153846741
521,0.041667610406876,-0.215295806527138,0.937867343425751,4.48100137710571,-12.6769895553589,-12.4120826721191,1.84376204013824,-0.041868228465319,0.286112904548645,-0.184898540377617,0.096761479973793,2.7418851852417
522,0.111176326870918,-0.032870903611183,0.889299631118774,9.26562404632568,-12.9180583953857,-12.6638774871826,1.84363090991974,-0.042661260813475,0.287522524595261,-0.134801059961319,0.278204888105392,2.58834314346313
523,-0.000889750779606,0.000643636682071,0.932078719139099,9.92112159729004,-12.4503488540649,-11.4633350372314,1.84427928924561,-0.043134611099959,0.285245269536972,-0.059368189424276,0.362050801515579,2.4790563583374
524,0.092817395925522,0.109282642602921,1.01956117153168,8.88166427612305,-11.0534076690674,-8.96304416656494,1.84401893615723,-0.043938800692558,0.286190152168274,0.02294398099184,0.525668919086456,2.38013911247253
525,0.207946583628654,0.004705250263214,1.03234887123108,11.9399242401123,-4.7664966583252,-8.23412609100342,1.84421491622925,-0.044776476919651,0.287144631147385,0.152463018894196,0.594325184822083,2.29487371444702
526,0.269302815198898,-0.208200216293335,0.998282968997955,16.673152923584,-6.70025682449341,-6.83960485458374,1.84535121917725,-0.04571570083499,0.29194974899292,0.319014608860016,0.556014537811279,2.23596858978271
527,0.232409849762917,-0.271366685628891,0.94053441286087,17.2369365692139,-3.11383962631226,-7.36243772506714,1.84666335582733,-0.046561423689127,0.293078750371933,0.454460859298706,0.458681106567383,2.1745285987854
528,0.150564506649971,-0.34040755033493,0.850740253925324,16.1201114654541,-2.36488366127014,-8.37092113494873,1.84667110443115,-0.048972770571709,0.293919891119003,0.696766078472137,0.490110754966736,2.0915195941925
529,0.056040305644274,-0.266518592834473,0.85393887758255,10.6050329208374,-5.92979145050049,-6.59423589706421,1.8454521894455,-0.048677444458008,0.293356508016586,0.643550872802734,0.618511021137237,2.08216762542725
530,0.020002944394946,-0.067692644894123,0.930703401565552,1.13868772983551,2.93386387825012,-6.50316715240479,1.84595477581024,-0.049710020422936,0.295143693685532,0.603191077709198,0.579827785491943,1.95620083808899
531,-0.093461349606514,0.097114749252796,0.88477635383606,0.802827417850494,0.046032939106226,-6.50546407699585,1.84613943099976,-0.050407063215971,0.295891225337982,0.580788314342499,0.570730447769165,1.89574432373047
532,0.160868391394615,0.333427578210831,0.886133253574371,-2.14247560501099,2.55914545059204,-6.08688259124756,1.84641182422638,-0.050870090723038,0.296575963497162,0.545182347297668,0.557222366333008,1.83667361736298
533,0.157213762402535,0.366501957178116,0.962539076805115,-0.487869530916214,7.35533857345581,-6.49634790420532,1.84759569168091,-0.050679054111242,0.297384411096573,0.470006167888641,0.435563564300537,1.78889238834381
534,-0.058902285993099,0.123408541083336,1.07184255123138,1.1796703338623,4.63741779327393,-4.91982936859131,1.84684491157532,-0.051517341285944,0.2979336977005,0.590432226657867,0.521366953849793,1.73096895217896
535,-0.078763090074062,0.068383023142815,1.17304277420044,4.16072750091553,-1.93626427650452,-3.77171492576599,1.8467630147934,-0.051763638854027,0.29800084233284,0.529379785060883,0.560018420219421,1.73947274684906
536,0.036273762583733,0.068561233580113,1.16924154758453,5.98633861541748,-4.2357349395752,-4.15630102157593,1.84707224369049,-0.053798142820597,0.300076752901077,0.694809198379517,0.580061912536621,1.68865668773651
537,0.033766757696867,0.065482027828693,1.02831840515137,8.9003267288208,-10.9770021438599,-2.31784558296204,1.84796369075775,-0.053545992821455,0.301151245832443,0.658219754695892,0.577998459339142,1.66391539573669
538,0.065297022461891,0.046831868588925,0.944843411445618,8.8585729598999,-13.3887491226196,-1.654048204422,1.8484753370285,-0.054983131587505,0.302124410867691,0.801239669322968,0.641068339347839,1.63452589511871
539,0.086420319974423,-0.125044867396355,0.908651411533356,10.9493474960327,-13.7694005966187,-0.816344022750855,1.84784960746765,-0.05558866634965,0.305056095123291,0.867131412029266,0.871494889259338,1.63425254821777
540,0.073057264089584,-0.135268151760101,0.848446190357208,11.1667642593384,-14.9713916778564,1.18625211715698,1.84697437286377,-0.057853683829308,0.30594265460968,1.09248864650726,1.0954726934433,1.61818945407867
541,0.055292129516602,-0.087491855025292,0.83936733007431,10.7397050857544,-8.67987442016602,0.687184929847717,1.84721994400024,-0.058524083346129,0.306940585374832,1.14746952056885,1.17462599277496,1.63254249095917
542,-0.007001901976764,-0.174616560339928,0.89009815454483,4.83892774581909,-6.81219720840454,2.5311803817749,1.84747791290283,-0.060604099184275,0.307662725448608,1.28740513324738,1.17361509799957,1.62014961242676
543,-0.042416043579578,0.095366917550564,0.819065690040588,-2.10128569602966,-0.117968171834946,1.25195407867432,1.84771597385407,-0.061034258455038,0.306857347488403,1.24136579036713,1.16567444801331,1.6558666229248
544,-0.192807018756866,0.22679241001606,0.794856429100037,-11.4841108322144,12.4624032974243,1.62904989719391,1.84862315654755,-0.060931671410799,0.307473450899124,1.07218718528748,1.02657866477966,1.68764734268188
545,-0.080489046871662,0.100864477455616,0.9184210896492,-15.2077264785767,14.5221519470215,2.51357364654541,1.84907579421997,-0.06366028636694,0.307642042636871,1.06451499462128,0.824831604957581,1.66322588920593
546,0.488195270299912,0.02486608736217,1.00533509254456,-19.2382926940918,23.227819442749,3.23265171051025,1.84856200218201,-0.062413331121206,0.309030324220657,0.76616781949997,0.836880266666412,1.76524186134338
547,0.289806991815567,-0.08014976978302,1.07201898097992,-16.8849430084229,16.2387619018555,3.43371534347534,1.84841239452362,-0.064799703657627,0.309192597866058,0.708922743797302,0.680395424365997,1.7674640417099
548,0.101164661347866,-0.075425162911415,1.14660656452179,-15.6954927444458,6.90557527542114,2.56223893165588,1.84896659851074,-0.064294867217541,0.309566646814346,0.430410295724869,0.54179173707962,1.82398915290833
549,0.210433557629585,-0.152031019330025,1.06305944919586,-8.63214015960693,0.247151955962181,1.56818568706512,1.84887754917145,-0.067084737122059,0.310213923454285,0.425669819116592,0.471468389034271,1.8079377412796
550,0.148192390799522,-0.100183233618736,0.963590443134308,-6.5155086517334,0.586790502071381,0.948019206523895,1.84846913814545,-0.068823337554932,0.310634315013885,0.388170450925827,0.494298040866852,1.81733548641205
551,0.012100113555789,0.007225112523884,0.841254651546478,0.032350976020098,-4.11868524551392,0.248310700058937,1.84766244888306,-0.071771934628487,0.310956865549087,0.47103613615036,0.548536717891693,1.80587005615234
552,-0.059047561138868,0.016342744231224,0.827654719352722,-0.246005222201347,-1.1459858417511,1.6117217540741,1.84806180000305,-0.071125388145447,0.3115493953228,0.278842508792877,0.523761212825775,1.84499323368073
