number,acc.x,acc.y,acc.z,gyro.x,gyro.y,gyro.z,stateEstimate.x,stateEstimate.y,stateEstimate.z,stabilizer.roll,stabilizer.pitch,stabilizer.yaw
0,0.03767054900527,-0.059776823967695,0.980441212654114,-2.43829321861267,3.35809326171875,0.16491711139679,0.524428725242615,0.534803450107574,0.316117912530899,0.005348903592676,-0.158156603574753,2.33633160591125
1,0.00833169836551,-0.23242399096489,1.00472044944763,-1.59536421298981,10.1383838653564,-0.564837038516998,0.523930072784424,0.534880101680756,0.317452132701874,-0.041967552155256,-0.193566396832466,2.33205366134644
2,0.047110799700022,-0.058276869356632,0.925614297389984,-3.2034637928009,15.3432188034058,-0.308168023824692,0.52478289604187,0.5351203083992,0.317561209201813,-0.107380710542202,-0.426320791244507,2.32648992538452
3,-0.020601630210877,-0.035819355398417,0.998815059661865,-5.72827386856079,22.1974124908447,-0.268104821443558,0.526071906089783,0.535479307174683,0.31760585308075,-0.197180911898613,-0.752792954444885,2.32059454917908
4,0.012527363374829,-0.004808012861758,1.00791478157043,-5.45850658416748,22.717924118042,-0.55297064781189,0.526124000549316,0.533520817756653,0.317681640386581,-0.079184077680111,-0.969172656536102,2.33020949363708
5,0.211356490850449,-0.048312835395336,0.87406837940216,-3.28984808921814,24.9695873260498,-1.13776099681854,0.527816891670227,0.534771025180817,0.319838374853134,-0.267364621162415,-1.3711963891983,2.31086945533752
6,0.112974375486374,-0.061822015792132,1.10143864154816,-5.30446577072144,17.5351104736328,-0.070455729961395,0.526093900203705,0.534940659999847,0.320141851902008,-0.345545321702957,-1.39206373691559,2.29905796051025
7,0.108963049948215,-0.069310642778874,1.12863731384277,-0.849194645881653,10.7020874023438,0.224349051713943,0.525625288486481,0.534277141094208,0.320332437753677,-0.315009623765945,-1.47150754928589,2.30470728874207
8,-0.011966971680522,-0.169131889939308,0.9757981300354,-0.106931164860725,7.21112203598022,0.427684903144836,0.523841083049774,0.533469080924988,0.321556270122528,-0.263357847929001,-1.37054812908173,2.31129384040833
9,0.053032856434584,0.006816754117608,0.975027203559876,3.53109622001648,2.45812797546387,0.703987300395966,0.52578067779541,0.533290565013886,0.321778804063797,-0.225431367754936,-1.60069859027863,2.32366013526916
10,0.037485931068659,-0.209304109215736,0.954334437847137,4.36715126037598,1.10379385948181,-0.625521063804626,0.525107979774475,0.532931804656982,0.322092086076736,-0.164020359516144,-1.53572344779968,2.32560968399048
11,0.032862443476915,-0.037807788699865,0.980097532272339,1.89108490943909,2.12757587432861,-0.034225825220347,0.525221347808838,0.532782316207886,0.319768875837326,-0.143356904387474,-1.55095052719116,2.32314133644104
12,0.109870553016663,-0.023993125185371,1.00251233577728,0.258575677871704,3.19721531867981,-0.736445784568787,0.526188492774963,0.532724618911743,0.319766104221344,-0.138258367776871,-1.65399360656738,2.32055425643921
13,-0.033788945525885,-0.241970509290695,0.962068676948547,-2.65094304084778,3.85482168197632,-0.241331294178963,0.525724649429321,0.531989991664887,0.319829434156418,-0.102398552000523,-1.61752438545227,2.32596158981323
14,0.046367961913347,0.000263159861788,0.992317855358124,-5.19178009033203,3.43741393089294,-0.802431285381317,0.526000559329987,0.532262027263641,0.319854229688644,-0.192549884319305,-1.66252553462982,2.3091893196106
15,0.086639501154423,-0.226488396525383,0.956565797328949,-5.47271060943604,9.41709995269775,0.425561100244522,0.525534093379974,0.532654643058777,0.319912493228912,-0.301564991474152,-1.64771997928619,2.28792142868042
16,0.132508844137192,-0.121287271380425,0.981805503368378,-4.23764896392822,4.19501352310181,-0.845922112464905,0.526804208755493,0.533087491989136,0.319848865270615,-0.402020752429962,-1.81566631793976,2.27114987373352
17,0.091985918581486,0.003343516727909,0.993019759654999,-2.91342401504517,5.62897872924805,-0.832948207855225,0.526497960090637,0.532573759555817,0.319870471954346,-0.399123758077622,-1.81606566905975,2.27043890953064
18,-0.011885240674019,-0.057964138686657,0.993193984031677,-0.710912883281708,3.15764951705933,-0.363283842802048,0.527743637561798,0.532804667949677,0.32143771648407,-0.451203882694244,-1.95584392547607,2.26275205612183
19,0.04834558442235,-0.030872581526637,0.971427619457245,-0.169605329632759,2.20483946800232,-0.140263304114342,0.529650628566742,0.532950103282928,0.32133561372757,-0.471038907766342,-2.14119386672974,2.26205730438232
20,0.018509801477194,0.007854664698243,0.964220404624939,3.1753990650177,0.192114070057869,-0.342150092124939,0.530529022216797,0.532920002937317,0.321286469697952,-0.45699480175972,-2.18471455574036,2.26182126998901
21,0.041300941258669,-0.198638185858727,0.972219944000244,3.95001840591431,-4.03215742111206,0.125701949000359,0.529009163379669,0.532549202442169,0.323348164558411,-0.390109419822693,-1.96220803260803,2.25460243225098
22,-0.034768853336573,-0.46882551908493,0.975144028663635,5.9457859992981,-6.67119884490967,-0.755873203277588,0.529464960098267,0.532221496105194,0.323418945074081,-0.314253777265549,-1.90923416614532,2.26215529441833
23,0.061750277876854,-0.063823133707047,0.984349548816681,5.32144403457642,-9.1794900894165,-0.454697191715241,0.529724776744843,0.531851410865784,0.32348820567131,-0.233217909932137,-1.81110501289368,2.26566123962402
24,-0.041783813387156,0.042813912034035,1.01666247844696,4.03007030487061,-6.34820604324341,-0.595138728618622,0.529112935066223,0.531417846679688,0.323600649833679,-0.158683925867081,-1.62903344631195,2.26336646080017
25,0.070559717714787,0.07056849449873,1.00748455524445,1.11243581771851,-6.93556547164917,-0.326920717954636,0.530173122882843,0.531304359436035,0.323357582092285,-0.13452884554863,-1.62189042568207,2.26405024528503
26,-0.046106081455946,-0.012682737782598,1.04814946651459,-3.60766553878784,-1.83712255954742,-0.19795323908329,0.533001184463501,0.53141063451767,0.323267608880997,-0.15595968067646,-1.80072212219238,2.26911044120789
27,-0.043682046234608,-0.039912059903145,0.94546902179718,-5.35030508041382,-1.79767429828644,-0.239908918738365,0.535872220993042,0.53265118598938,0.323093622922897,-0.321571975946426,-1.97384023666382,2.24243474006653
28,0.074735760688782,0.031432241201401,1.01147353649139,-5.64907598495483,-2.44135522842407,0.804208397865295,0.53569483757019,0.533008456230164,0.322127044200897,-0.410694152116776,-1.8420387506485,2.22944951057434
29,0.088356122374535,-0.125743091106415,0.915642976760864,-3.41797947883606,-5.28039884567261,0.487535357475281,0.535350322723389,0.532542586326599,0.32221308350563,-0.403593629598618,-1.67002153396606,2.2433066368103
30,0.078207135200501,0.050089798867703,1.02199721336365,-0.228222608566284,-8.77772235870361,0.581158339977264,0.536500871181488,0.532007038593292,0.322117626667023,-0.367200464010239,-1.62056648731232,2.26846289634705
31,0.035445500165224,-0.030354039743543,0.944171845912933,4.70469379425049,-9.02171897888184,0.217058822512627,0.535129904747009,0.531788051128387,0.323820352554321,-0.323588281869888,-1.30394554138184,2.26356410980225
32,0.076786004006863,0.064522042870522,0.98006135225296,4.28540706634522,-8.46278953552246,0.186341151595116,0.536828637123108,0.532337963581085,0.323748588562012,-0.326851725578308,-1.29744350910187,2.25858879089355
33,-0.030772680416703,-0.091140925884247,1.01147174835205,5.06442356109619,-6.36836338043213,0.43987250328064,0.540311813354492,0.532187461853027,0.323528856039047,-0.249968394637108,-1.46918952465057,2.28204107284546
34,-0.000517273962032,-0.087281815707684,0.975159764289856,5.15035629272461,-5.9183611869812,0.437797755002975,0.539905548095703,0.532650113105774,0.323633700609207,-0.24774943292141,-1.26715075969696,2.26783537864685
35,-0.014775278046727,0.027699679136276,1.02768695354462,2.04044771194458,-8.03267574310303,0.348021119832993,0.541077077388763,0.532420575618744,0.323327511548996,-0.181127995252609,-1.21568238735199,2.27803134918213
36,0.070415750145912,-0.207620427012444,1.06643378734589,-0.864178061485291,-4.54915237426758,1.26643562316895,0.543042242527008,0.533200681209564,0.32321298122406,-0.23107673227787,-1.24416518211365,2.27343797683716
37,0.295570760965347,-0.120816238224506,1.05164575576782,0.977614760398865,-7.2817325592041,0.291501343250275,0.544284582138062,0.532574951648712,0.323219269514084,-0.171035334467888,-1.19377624988556,2.29641151428223
38,0.0748655423522,-0.005531990900636,0.969927608966827,-1.05768489837646,-7.68077754974365,0.519024252891541,0.543062686920166,0.533232927322388,0.325042337179184,-0.233403265476227,-0.901062428951263,2.26925730705261
39,0.045707456767559,0.045379780232906,0.942891240119934,2.0434033870697,-8.6095027923584,0.622167408466339,0.545664191246033,0.533367097377777,0.325080364942551,-0.224792420864105,-0.97279816865921,2.28343510627747
40,0.017996335402131,-0.032549787312746,0.949460923671722,0.439949125051498,-9.23998260498047,0.803251445293427,0.547475457191467,0.533325433731079,0.32509058713913,-0.191204383969307,-0.958224475383758,2.29720544815063
41,0.045613296329975,0.039244141429663,0.988742411136627,4.12250518798828,-7.49810838699341,0.746358335018158,0.546005308628082,0.533067941665649,0.324295818805695,-0.143185913562775,-0.638962686061859,2.29693222045898
42,0.057948555797339,-0.056055016815662,1.01384127140045,4.92598390579224,-10.2047691345215,0.868220508098602,0.547788619995117,0.53290182352066,0.324236959218979,-0.078990779817104,-0.630702793598175,2.31402897834778
43,-0.009018757380545,0.102014005184174,1.03766977787018,3.77015781402588,-8.29389572143555,0.307220548391342,0.551128089427948,0.53264445066452,0.324061036109924,0.009995200671256,-0.754017531871796,2.33247065544128
44,-0.004636870697141,0.022798791527748,0.990640103816986,3.16385769844055,-8.33662700653076,-0.199465945363045,0.553665280342102,0.532541573047638,0.325590878725052,0.063335575163364,-0.769157350063324,2.34091973304749
45,-0.015082648955286,0.123622603714466,0.987646281719208,-0.665151715278626,-6.62409591674805,-0.29911470413208,0.552357971668243,0.533124804496765,0.325961947441101,0.012205293402076,-0.450155764818192,2.31983232498169
46,0.160916104912758,-0.163044333457947,0.937332928180695,-1.21048080921173,-7.33249950408936,-0.521428525447845,0.554134070873261,0.533315122127533,0.325993806123734,-0.007269863039255,-0.426042079925537,2.31866717338562
47,0.040280871093273,-0.079306341707707,0.975408017635345,-3.81087183952332,-7.46323442459106,0.186252698302269,0.555218935012817,0.533602178096771,0.326043725013733,-0.055051680654287,-0.332608491182327,2.31764936447144
48,0.071173377335072,0.125402048230171,0.905938267707825,-0.766862034797668,1.31976294517517,0.196887627243996,0.553872466087341,0.533752143383026,0.324470728635788,-0.094648770987988,-0.052383795380592,2.31093239784241
49,-0.090783298015595,0.039165377616882,0.939540982246399,-1.6630072593689,-4.24373435974121,-0.102481320500374,0.555320858955383,0.533986747264862,0.324288815259934,-0.12057925760746,-0.062540665268898,2.31428265571594
50,0.184311836957932,0.088725909590721,1.01462936401367,0.177576273679733,-3.98551654815674,0.654767394065857,0.559954881668091,0.534254193305969,0.323898375034332,-0.128719240427017,-0.35620453953743,2.32059240341187
51,0.106891423463821,-0.10928463190794,1.11360812187195,0.285005509853363,-2.44590139389038,2.68375611305237,0.559865236282349,0.534136891365051,0.324204117059708,-0.096772447228432,-0.200771018862724,2.33362507820129
52,0.019782235845924,-0.033594526350498,1.3655070066452,-1.73097705841064,-6.49437713623047,0.585041642189026,0.561347723007202,0.534254133701324,0.32412576675415,-0.109811916947365,-0.201299488544464,2.34670472145081
53,0.007447755895555,-0.013350835070014,1.13805413246155,2.96965479850769,-3.04858946800232,0.504332959651947,0.564328074455261,0.534301817417145,0.324133813381195,-0.080965369939804,-0.331760287284851,2.35339879989624
54,0.022531434893608,-0.085885621607304,0.953235864639282,5.23873996734619,-5.38255119323731,-0.463944435119629,0.56637841463089,0.534123957157135,0.322879493236542,-0.011225149035454,-0.352068364620209,2.35474920272827
55,0.262605488300323,-0.097637929022312,0.963589549064636,3.64864706993103,-9.14733409881592,0.772587299346924,0.565924227237701,0.535320997238159,0.323306977748871,-0.070575907826424,-0.118643581867218,2.35190439224243
56,0.097960636019707,0.057463828474283,1.02708494663239,4.25325584411621,-7.93958473205566,-0.266012012958527,0.566049575805664,0.535157918930054,0.323608160018921,-0.009938980452716,0.077519573271275,2.35369920730591
57,-0.01899079605937,-0.029047098010779,0.981948435306549,2.09511590003967,-10.8133878707886,-1.30439221858978,0.568642914295197,0.535011112689972,0.323684990406036,0.055443797260523,0.060750208795071,2.34697079658508
58,0.386208236217499,-0.085524037480354,1.02899026870728,1.49511623382568,-6.93402338027954,-0.977627217769623,0.567182242870331,0.534797430038452,0.324891626834869,0.102894052863121,0.405439049005508,2.33223056793213
59,0.231822922825813,-0.006292621605098,0.949474036693573,0.859174370765686,-3.22460627555847,-0.953377962112427,0.569091618061066,0.5347980260849,0.325106263160706,0.127513572573662,0.397967785596848,2.32382392883301
60,-0.041975375264883,-0.017462281510234,0.942578852176666,-1.59208154678345,-0.171832129359245,-0.1600152105093,0.570579171180725,0.534907579421997,0.32529816031456,0.11602720618248,0.383206605911255,2.3200991153717
61,0.209098011255264,-0.041315909475088,0.909152090549469,-3.85998749732971,0.075450584292412,-1.59827136993408,0.572185397148132,0.535010397434235,0.326345920562744,0.097194403409958,0.345022708177567,2.31410264968872
62,0.121525071561337,-0.006758063100278,0.976200819015503,-4.47018623352051,2.80966877937317,-0.547318637371063,0.572248041629791,0.535351037979126,0.326573938131332,0.026091139763594,0.417499572038651,2.31067657470703
63,0.477347582578659,-0.030401971191168,1.01240932941437,-5.40250158309937,2.85766839981079,0.115183241665363,0.57414048910141,0.535769462585449,0.326629549264908,-0.051938451826573,0.298562079668045,2.30918574333191
64,0.057459257543087,-0.009423541836441,1.01601958274841,-1.82891654968262,3.10683488845825,0.229917138814926,0.57502281665802,0.535345077514648,0.324247479438782,-0.043652638792992,0.27952429652214,2.30492663383484
65,0.049678780138493,0.075746148824692,0.98490971326828,-1.20971953868866,-0.161840409040451,0.198641136288643,0.575960576534271,0.5363809466362,0.324242264032364,-0.144968271255493,0.273176908493042,2.3173451423645
66,-0.005692215170711,-0.106280729174614,1.02170443534851,0.742044568061829,-0.561975598335266,0.187714368104935,0.576819837093353,0.536413431167603,0.324245005846024,-0.126972377300262,0.294325917959213,2.31763982772827
67,0.006804836448282,-0.215055406093597,0.988422453403473,3.91303014755249,-1.61317217350006,-0.621397197246552,0.579219520092011,0.53561007976532,0.324763864278793,-0.014143370091915,0.207048758864403,2.3022027015686
68,0.179014757275581,-0.13403257727623,1.0064183473587,3.13127589225769,-3.41540789604187,0.370139300823212,0.579931020736694,0.535340666770935,0.324817180633545,0.053444489836693,0.277371019124985,2.29869723320007
69,0.061097722500563,-0.068951681256294,0.940457046031952,2.27129244804382,-2.57157325744629,-0.732252240180969,0.581263303756714,0.535147070884705,0.324800461530685,0.11262609064579,0.306260704994202,2.29314780235291
70,0.041690926998854,0.068399839103222,0.974747359752655,-0.836879551410675,-2.89718890190125,-0.589540183544159,0.58188933134079,0.534251391887665,0.324815273284912,0.194543704390526,0.397707045078278,2.27654528617859
71,0.034285537898541,-0.051126275211573,0.913487374782562,-3.58838438987732,-2.99681711196899,-0.847901105880737,0.583159744739533,0.534395694732666,0.322393447160721,0.15253284573555,0.405101835727692,2.26883149147034
72,0.228240266442299,-0.058470658957958,0.966598629951477,-5.8055305480957,-0.545553207397461,-1.50957942008972,0.583559691905975,0.536377549171448,0.322218954563141,-0.076995335519314,0.478509038686752,2.28310704231262
73,0.292241156101227,-0.082470528781414,0.965484857559204,-5.57978582382202,-0.552836954593658,-0.873623669147491,0.583540081977844,0.535119116306305,0.32203021645546,-0.022552160546184,0.569959878921509,2.25599908828735
74,0.307164400815964,0.039123915135861,1.00765979290009,-4.74920797348022,3.96105098724365,-0.813626408576965,0.584399104118347,0.535582959651947,0.322712510824203,-0.11690429598093,0.543518543243408,2.25124740600586
75,0.165365815162659,0.009912420995533,0.996634364128113,-2.76155948638916,6.20591688156128,-0.765335738658905,0.585426867008209,0.535958647727966,0.322438091039658,-0.185328036546707,0.480978518724442,2.24820733070374
76,0.428819984197617,0.099707640707493,1.02117466926575,-1.07064068317413,6.82395839691162,-0.529470980167389,0.587599575519562,0.536195993423462,0.322101205587387,-0.209882840514183,0.298971116542816,2.24002432823181
77,0.146800249814987,-0.012896628119052,0.95735102891922,1.70897781848907,7.19159507751465,-0.636781871318817,0.588031947612762,0.536262810230255,0.322267353534698,-0.2080367654562,0.282828748226166,2.23525619506836
78,0.098980344831944,-0.010392111726105,0.991060197353363,3.56494069099426,3.5550229549408,-0.053201716393232,0.590196967124939,0.535360336303711,0.321921080350876,-0.093726947903633,0.12907586991787,2.21744012832642
79,0.049058601260185,-0.071527823805809,0.993696212768555,3.89622926712036,2.39325642585754,-0.146934390068054,0.591168642044067,0.536772429943085,0.321609288454056,-0.174142107367516,0.103831075131893,2.23518872261047
80,-0.022277159616351,0.033149886876345,0.99317878484726,3.04198241233826,-2.10062003135681,-0.389489859342575,0.5912064909935,0.53564316034317,0.321428090333939,-0.034474164247513,0.21134489774704,2.21544504165649
81,-0.042663741856814,0.04429341852665,1.10141968727112,3.30987238883972,-3.17413449287415,-0.140979051589966,0.591032207012177,0.535386323928833,0.321060299873352,0.024876637384296,0.339040696620941,2.21059441566467
82,0.017511883750558,-0.198586598038673,0.936460256576538,3.81662368774414,-1.5666435956955,0.084025643765926,0.59309995174408,0.536124765872955,0.320752441883087,-0.002190788742155,0.273492038249969,2.21822357177734
83,0.175953611731529,-0.065688423812389,0.966344356536865,0.290268212556839,-0.548522055149078,0.144814670085907,0.593862652778626,0.53599464893341,0.320502072572708,0.030078496783972,0.302261859178543,2.21827936172485
84,-0.033069189637899,-0.147333741188049,1.03883647918701,0.715177118778229,3.11888742446899,-0.627770245075226,0.594607889652252,0.535948157310486,0.317309647798538,0.051163997501135,0.308671623468399,2.21249556541443
85,0.069177076220512,0.038755960762501,1.05699133872986,-0.769014418125153,4.60700273513794,-0.908150374889374,0.594766497612,0.535958409309387,0.316925764083862,0.048227716237307,0.348235726356506,2.20521545410156
86,0.41081228852272,0.008474296890199,0.975558817386627,-1.18581116199493,7.58427381515503,0.324272394180298,0.597530424594879,0.536929786205292,0.316403210163116,-0.031040903180838,0.115923829376698,2.21092963218689
87,0.361544579267502,-0.073310732841492,1.0005316734314,-1.60400354862213,7.14116859436035,-0.139323353767395,0.59801721572876,0.536231338977814,0.312928885221481,0.021485019475222,0.088442049920559,2.20366382598877
88,0.105728067457676,-0.06283450126648,0.934530973434448,-2.95915150642395,5.31067848205566,0.087558709084988,0.598472833633423,0.535567700862885,0.312336951494217,0.05677204951644,0.074231505393982,2.19686555862427
89,-0.029069682583213,0.034407250583172,1.08903133869171,-1.91937911510468,4.01239824295044,-0.202878579497337,0.598675787448883,0.536508321762085,0.311769127845764,-0.044490437954664,0.089469201862812,2.20890522003174
90,0.009930235333741,-0.041988968849182,0.990296065807342,1.82095456123352,3.47348952293396,0.88327693939209,0.59882515668869,0.5366051197052,0.311233639717102,-0.049084965139628,0.120790354907513,2.21332311630249
91,0.180331110954285,-0.014843767508864,0.970961928367615,3.63844847679138,2.69623208045959,0.982907950878143,0.600702702999115,0.535597145557404,0.311224073171616,0.08528795093298,-0.001815632567741,2.20568704605103
92,0.118223801255226,-0.137623056769371,1.07702970504761,4.70232057571411,2.45596432685852,1.90030360221863,0.60079962015152,0.536104798316956,0.310745537281036,0.082064524292946,0.044789329171181,2.23321628570557
93,0.04826295748353,-0.14153578877449,0.992707550525665,4.4646782875061,1.39336633682251,0.654158174991608,0.602473795413971,0.536655187606812,0.310170114040375,0.081374011933804,-0.048914905637503,2.24646091461182
94,0.196396142244339,-0.058743700385094,1.01371562480927,2.89239001274109,1.59131634235382,1.06255221366882,0.604904115200043,0.536403954029083,0.307073205709457,0.16045169532299,-0.195933163166046,2.2538480758667
95,0.049458343535662,0.027996486052871,1.07519495487213,2.77795624732971,0.917219758033752,1.90970754623413,0.604951202869415,0.536234498023987,0.306543916463852,0.200503274798393,-0.1167286708951,2.2701301574707
96,0.076361998915672,-0.005162258632481,1.00977969169617,0.730276048183441,0.563473105430603,1.71937882900238,0.604948699474335,0.536021173000336,0.30604487657547,0.240597322583199,-0.030862387269735,2.28877758979797
97,0.119837924838066,0.023486532270908,1.04834318161011,-1.07175874710083,0.462358802556992,2.24693202972412,0.606452643871307,0.53691816329956,0.304743200540543,0.151768952608109,-0.095161236822605,2.3173303604126
98,0.115884706377983,0.104744285345078,1.06642484664917,0.633429050445557,1.68757045269012,2.48576855659485,0.60725075006485,0.536985337734222,0.304173171520233,0.155788019299507,-0.090247705578804,2.33999919891357
99,0.376963317394257,-0.004362945444882,0.963014364242554,1.94254791736603,1.86728632450104,1.65374779701233,0.608897268772125,0.535383522510529,0.303567856550217,0.325838565826416,-0.15731905400753,2.34913420677185
100,0.445518583059311,-0.017544379457831,1.0648193359375,1.63233613967896,1.06571388244629,3.1989848613739,0.608984589576721,0.535287499427795,0.300677746534348,0.339015126228333,-0.095430299639702,2.37893080711365
101,0.631607592105866,-0.107036381959915,0.994828939437866,-0.53375244140625,0.37478107213974,2.14970397949219,0.608995676040649,0.535248219966888,0.300118714570999,0.333347111940384,-0.015696445479989,2.40964984893799
102,0.179519042372704,-0.062267672270537,1.04195237159729,-1.72757339477539,-0.094439432024956,3.01001596450806,0.610527336597443,0.53542160987854,0.299486100673676,0.29316583275795,-0.080982588231564,2.43548274040222
103,0.03402853757143,0.097604088485241,1.02663469314575,-0.393015474081039,3.00111126899719,2.5170783996582,0.612055778503418,0.537191152572632,0.298897385597229,0.110642336308956,-0.168686419725418,2.47148609161377
104,0.066051535308361,0.152785360813141,1.15675103664398,-3.60740828514099,-4.14869594573975,-0.668800473213196,0.613732874393463,0.535831928253174,0.295531541109085,0.227660700678825,-0.246176227927208,2.47563695907593
105,0.060965795069933,0.128525704145432,1.14362347126007,-0.871165871620178,3.22863984107971,3.49004435539246,0.614558935165405,0.535087645053864,0.294961184263229,0.290608018636703,-0.243679627776146,2.49740600585937
106,-0.05468987300992,-0.035543914884329,1.05114698410034,2.08951687812805,2.41639137268066,2.98837447166443,0.614622116088867,0.535921573638916,0.294640749692917,0.198063403367996,-0.181121632456779,2.53487777709961
107,0.16405776143074,0.013514943420887,1.01585853099823,1.54463016986847,0.531000733375549,2.52142119407654,0.61556214094162,0.535824000835419,0.297814339399338,0.217768773436546,-0.188088119029999,2.56042718887329
108,0.185642138123512,-0.103201501071453,1.07137048244476,2.63051223754883,0.749996840953827,2.24256014823914,0.61631578207016,0.536489307880402,0.297671318054199,0.169007763266563,-0.18930484354496,2.58526968955994
109,0.167440518736839,-0.160189211368561,1.07642483711243,3.84978628158569,-0.09168691188097,2.98839735984802,0.617144703865051,0.534924149513245,0.29758894443512,0.351071536540985,-0.176297634840012,2.60832118988037
110,0.174414753913879,-0.139340713620186,1.00637626647949,-1.86911344528198,-9.35510635375977,-0.259465605020523,0.619298279285431,0.534822642803192,0.296905428171158,0.363529592752457,-0.276340514421463,2.62244057655334
111,0.512527763843536,-0.077003881335259,1.01347947120667,1.35213220119476,0.74519670009613,2.61317729949951,0.619717001914978,0.535577237606049,0.296915352344513,0.281676232814789,-0.201462641358376,2.64777684211731
112,0.224351838231087,-0.160974279046059,1.05878376960754,-1.90710163116455,0.742871820926666,3.18816995620728,0.622022807598114,0.53496241569519,0.296704947948456,0.333311587572098,-0.347917377948761,2.67305779457092
113,0.264688611030579,-0.084033109247685,1.04274916648865,-2.11810803413391,0.340649217367172,2.27257513999939,0.621282637119293,0.536543190479279,0.297023504972458,0.135814532637596,-0.182667434215546,2.70831513404846
114,0.431295186281204,-0.021215846762061,1.01809132099152,-0.19999760389328,-1.64254009723663,2.76421117782593,0.622807681560516,0.535241663455963,0.30095037817955,0.257227689027786,-0.214783310890198,2.7305862903595
115,0.26034414768219,0.065679669380188,1.00605523586273,-0.062467079609633,-0.801222264766693,3.05339741706848,0.622769117355347,0.535297214984894,0.301347851753235,0.233751177787781,-0.104712098836899,2.764235496521
116,0.315768033266067,-0.158676221966744,1.00182545185089,0.256593197584152,-2.56918001174927,1.18449997901917,0.624751806259155,0.535337090492249,0.301587909460068,0.22840528190136,-0.18920274078846,2.77815079689026
117,5.28782438777853E-05,-0.214953526854515,1.02281403541565,-0.558813512325287,-1.02111756801605,1.56355655193329,0.626751124858856,0.535459280014038,0.300603479146957,0.208030477166176,-0.276875346899033,2.79065752029419
118,0.085699766874313,0.00085285276873,0.943552553653717,-1.22642576694489,-0.888958096504211,1.3225075006485,0.625924408435822,0.536137521266937,0.301130264997482,0.122176721692085,-0.077646888792515,2.81128692626953
119,0.025541326031089,0.084447450935841,1.05592882633209,-0.525624215602875,-2.16332745552063,0.720709502696991,0.627252221107483,0.535502910614014,0.301414787769318,0.183255270123482,-0.093111105263233,2.81905078887939
120,0.230562925338745,-0.119233533740044,0.957824468612671,-0.232164770364761,-1.23436653614044,0.776557266712189,0.629236817359924,0.535003125667572,0.299660116434097,0.219872713088989,-0.184644192457199,2.82155704498291
121,0.107428789138794,-0.677625477313995,1.00137221813202,-1.89877891540527,-0.120761938393116,0.18084716796875,0.629239678382874,0.534245848655701,0.299951791763306,0.277844786643982,-0.070565491914749,2.82762312889099
122,0.038526810705662,-0.34201717376709,1.03349876403809,-2.41585898399353,-0.903058767318726,-0.047310404479504,0.631305813789368,0.534473955631256,0.300070911645889,0.218632519245148,-0.177122384309769,2.82462596893311
123,0.039518017321825,0.013322521001101,0.996798634529114,-5.41152811050415,-1.39125299453735,0.264870047569275,0.631985664367676,0.534723579883575,0.300346881151199,0.131291896104813,-0.136110544204712,2.82615375518799
124,0.061839856207371,0.066281318664551,1.01652371883392,-5.2851300239563,-3.21655797958374,-0.566586852073669,0.632624924182892,0.535107731819153,0.301198065280914,0.025794897228479,-0.079729862511158,2.82510614395142
125,0.177396669983864,0.034575380384922,1.02494895458221,-1.42918312549591,-1.69195711612701,-0.708967208862305,0.634674608707428,0.534039676189423,0.30138897895813,0.096982687711716,-0.163765266537666,2.81616902351379
126,0.094508148729801,-0.081049397587776,0.910430788993835,-0.960323810577393,-4.46019792556763,-0.888168811798096,0.633186280727387,0.534053027629852,0.301991879940033,0.054523054510355,0.117657765746117,2.81503176689148
127,0.075676247477532,-0.025734020397067,1.19409930706024,-0.843976378440857,-6.5781831741333,-0.07439911365509,0.633696615695953,0.532751798629761,0.302260905504227,0.155776396393776,0.19800116121769,2.80608725547791
128,-0.045206896960735,-0.15693587064743,1.08702206611633,-2.35282635688782,1.20330286026001,-1.55818021297455,0.636350274085999,0.532959997653961,0.302573531866074,0.09746652841568,0.022860368713737,2.78603291511536
129,0.097779959440231,0.00519299460575,0.960596799850464,-5.5821647644043,1.79508054256439,-2.59787058830261,0.6366126537323,0.533266961574554,0.303117662668228,-0.012234442867339,0.063560403883457,2.77193999290466
130,0.194498643279076,0.034275647252798,1.07622683048248,-6.31142854690552,6.39785957336426,-2.19603562355041,0.639762461185455,0.531602323055267,0.302356064319611,0.094455190002918,-0.201102361083031,2.73427224159241
131,0.044216081500054,-0.120272114872932,1.02056407928467,-9.33920478820801,5.62349224090576,-1.44249892234802,0.640246093273163,0.532796680927277,0.302913129329681,-0.141168266534805,-0.204156696796417,2.72565865516663
132,0.170031160116196,-0.084363281726837,0.896371603012085,-10.2092447280884,4.02715635299683,-1.28636121749878,0.640619277954102,0.532683551311493,0.303414672613144,-0.246228143572807,-0.178450107574463,2.7092969417572
133,0.158875435590744,-0.012693401426077,1.0546543598175,-5.9570484161377,1.67268311977386,-1.8545606136322,0.642258584499359,0.531903505325317,0.30103874206543,-0.251600235700607,-0.266996413469315,2.69371294975281
134,0.10480447858572,0.004883106797934,0.992328405380249,-5.61554718017578,-2.46346044540405,-2.2445080280304,0.643021166324616,0.53231954574585,0.301294207572937,-0.374159574508667,-0.219144761562347,2.67247581481934
135,0.000357535114745,-0.153032958507538,0.956544637680054,-1.96865367889404,-2.87552905082703,-1.56791985034943,0.64298403263092,0.531112670898438,0.301669746637344,-0.303715944290161,-0.080316826701164,2.65771865844727
136,-0.009443680755794,0.015992265194655,0.982627511024475,0.099680781364441,-3.38443112373352,-1.14740836620331,0.644817054271698,0.531258940696716,0.30180162191391,-0.340851992368698,-0.113661333918571,2.6435170173645
137,0.167730078101158,0.087829284369946,1.07947599887848,0.308480232954025,-4.98482894897461,-1.98334968090057,0.646129369735718,0.532093286514282,0.30312392115593,-0.448848307132721,-0.098649859428406,2.6310031414032
138,0.114766210317612,-0.07308192551136,0.931691765785217,-0.157993569970131,-0.904449939727783,-1.86968970298767,0.648132562637329,0.530632734298706,0.303358316421509,-0.294617533683777,-0.155690029263496,2.61475396156311
139,0.133024916052818,-0.131929993629456,1.00089740753174,1.5481241941452,-3.62817788124084,-2.87531852722168,0.649481356143951,0.529909253120422,0.303588002920151,-0.231884717941284,-0.13489443063736,2.59083890914917
140,0.104766942560673,-0.098733022809029,0.995618224143982,-1.06857061386108,-1.84591460227966,-1.60525643825531,0.64920574426651,0.53058397769928,0.303101539611816,-0.33455890417099,0.035390365868807,2.56487226486206
141,0.151840791106224,0.088217452168465,0.981221437454224,-2.77581715583801,-1.13210427761078,-2.4875271320343,0.649822890758514,0.52991110086441,0.303340822458267,-0.302936345338821,0.096573367714882,2.54333019256592
142,0.037823401391506,-0.085044831037521,0.939819395542145,-5.28743457794189,0.086115472018719,-1.96302878856659,0.652658343315125,0.53033709526062,0.303390741348267,-0.402535855770111,-0.087274312973023,2.52777457237244
143,0.04645486921072,-0.06821533292532,1.00219738483429,-7.30372333526611,1.45850884914398,-0.826903581619263,0.651389062404633,0.53062504529953,0.306380927562714,-0.526178956031799,0.139293417334557,2.50669503211975
144,0.002945550251752,-0.077432490885258,1.04828250408173,-4.84470510482788,-1.22772920131683,-1.84516680240631,0.652860224246979,0.529577195644379,0.306698024272919,-0.47795569896698,0.091536812484264,2.49252820014954
145,0.024191902950406,-0.071238718926907,1.00385630130768,-2.00192260742187,-1.05799376964569,-1.51034569740295,0.654322922229767,0.529991388320923,0.307011395692825,-0.576133787631989,0.038371071219444,2.48225784301758
146,0.075737774372101,-0.021618662402034,0.94592422246933,-0.563197433948517,-0.480389624834061,-1.39378035068512,0.655823469161987,0.530146241188049,0.307289481163025,-0.609156548976898,-0.016027178615332,2.47102522850037
147,-0.061584241688252,0.009814091026783,0.936154305934906,8.81910991668701,0.242473512887955,0.160309910774231,0.657315194606781,0.528755843639374,0.307102292776108,-0.460987955331802,-0.054604712873697,2.45954608917236
148,-0.005255653057247,0.038861624896526,0.874874949455261,2.25729465484619,-2.68833684921265,-0.382922261953354,0.65736448764801,0.529133498668671,0.307420283555984,-0.484387814998627,0.045537900179625,2.44768738746643
149,0.041375152766705,-0.118949137628078,0.947871446609497,0.018883829936385,-3.25667452812195,-1.0623072385788,0.65794050693512,0.529048323631287,0.307559818029404,-0.4775330722332,0.110279060900211,2.43499279022217
150,-0.014697268605232,-0.057346407324076,0.997206628322601,1.15180027484894,-3.63270258903503,-1.48956644535065,0.659311354160309,0.528433978557587,0.310500472784042,-0.4280925989151,0.112258836627007,2.42568445205688
151,0.002337628277019,0.073557034134865,1.06442654132843,-0.494735151529312,-2.47714114189148,-1.17154181003571,0.661323428153992,0.528447687625885,0.310645043849945,-0.435215294361115,0.035322528332472,2.41648077964783
152,0.034478429704905,-0.361614495515823,0.939291417598724,0.853840351104736,-1.88386452198029,-1.87013125419617,0.661164164543152,0.528466165065765,0.311036199331284,-0.453582495450974,0.190739139914513,2.38708424568176
153,0.097352795302868,-0.156529486179352,1.00998270511627,-1.53126895427704,-1.54899835586548,-2.18506288528442,0.662613570690155,0.528618335723877,0.310792535543442,-0.485592812299728,0.152508050203323,2.37755727767944
154,-0.045522015541792,-0.234673723578453,1.06717789173126,-1.76481580734253,2.57371520996094,-1.95121586322784,0.664858043193817,0.528840959072113,0.310888141393661,-0.521990239620209,0.023830756545067,2.36862730979919
155,0.111151412129402,-0.087864711880684,0.933788418769836,-2.99774527549744,1.21652841567993,-3.2222728729248,0.665832936763763,0.52838134765625,0.311128377914429,-0.508808612823486,0.025255316868425,2.34407472610474
156,0.078327529132366,-0.00029271186213,0.90661495923996,-1.18947684764862,1.14555239677429,-1.55407547950745,0.667606294155121,0.528618097305298,0.311223089694977,-0.556836783885956,-0.063789859414101,2.32870721817017
157,0.180166944861412,0.057604514062405,1.01095056533813,-0.763078629970551,0.074402242898941,-2.02682161331177,0.668416917324066,0.530302166938782,0.309868514537811,-0.744859278202057,-0.047981936484575,2.31531190872192
158,0.19321271777153,-0.015103275887668,1.02536237239838,1.52150678634644,-2.1082718372345,-1.410724401474,0.668459475040436,0.529654324054718,0.310075491666794,-0.676188230514526,0.078114502131939,2.28956770896912
159,0.134905859827995,-0.009745008312166,0.944893479347229,2.27412009239197,-2.5820517539978,-0.860043942928314,0.669924676418304,0.528887867927551,0.310115069150925,-0.57371586561203,0.051291469484568,2.27998971939087
160,0.258296191692352,-0.193762347102165,1.05019581317902,0.996403634548187,-2.9037754535675,-3.1737916469574,0.669782638549805,0.528635084629059,0.309512227773666,-0.525029599666595,0.201594159007072,2.25413060188293
161,0.113206438720226,-0.068294540047646,1.06048655509949,7.41458559036255,-3.39371418952942,0.254432559013367,0.671124517917633,0.528388738632202,0.309493750333786,-0.449346393346787,0.189973711967468,2.24594187736511
162,0.03310326859355,-0.116565726697445,0.971905767917633,6.61614561080933,-3.65076923370361,-0.65575784444809,0.672495245933533,0.527950882911682,0.309499979019165,-0.332583487033844,0.174682199954987,2.24326300621033
163,-0.027321444824338,-0.134700760245323,0.953357696533203,5.92154884338379,-0.371772915124893,-0.679511249065399,0.675188302993774,0.529169917106628,0.30924391746521,-0.390563875436783,0.024989977478981,2.2557201385498
164,0.155256852507591,0.020526848733425,1.01004731655121,3.38261485099792,-2.02410340309143,-1.1950808763504,0.675137341022491,0.528899133205414,0.309358596801758,-0.327123284339905,0.156694248318672,2.23501253128052
165,0.105520203709602,-0.193350285291672,1.02876770496368,2.18754196166992,2.74966716766357,0.885639727115631,0.67591118812561,0.528663814067841,0.309372931718826,-0.26885798573494,0.172084257006645,2.22587466239929
166,0.244542926549911,-0.132909119129181,0.993122577667236,0.997911036014557,1.67423808574677,0.374892354011536,0.676713943481445,0.528543770313263,0.310572594404221,-0.239634156227112,0.187848776578903,2.23134851455688
167,0.115006446838379,0.048362400382757,1.04186081886292,-1.86393809318542,0.673931121826172,0.882353186607361,0.678349792957306,0.528739333152771,0.310594141483307,-0.266979455947876,0.102493345737457,2.24532985687256
168,-0.043446462601423,0.022633343935013,1.06458616256714,-1.5805811882019,2.33197236061096,0.221876069903374,0.679157853126526,0.528774261474609,0.31070864200592,-0.279014050960541,0.117622323334217,2.24887752532959
169,0.035402171313763,-0.171535864472389,0.973150730133056,0.349200397729874,0.087622858583927,-0.058418892323971,0.67915403842926,0.530406355857849,0.310930997133255,-0.453490018844605,0.207750931382179,2.25417804718018
170,0.03101714886725,-0.164835810661316,0.977712690830231,0.066117465496063,0.562023222446442,2.15011978149414,0.679244816303253,0.530355393886566,0.312803685665131,-0.427240878343582,0.290996849536896,2.25977444648743
171,0.171709090471268,-0.081345207989216,0.990642547607422,6.28639554977417,0.613261699676514,0.349212855100632,0.682180941104889,0.530299842357636,0.312908887863159,-0.352264374494553,0.088714152574539,2.28165292739868
172,0.320301055908203,-0.000981953577138,0.949059307575226,7.7204909324646,0.385690122842789,0.121382087469101,0.682931840419769,0.529852747917175,0.31313157081604,-0.219347611069679,0.126029014587402,2.28114414215088
173,0.106933027505875,-0.013306035660207,1.08415901660919,7.19182729721069,3.1354923248291,1.49144399166107,0.68390291929245,0.529237687587738,0.312611252069473,-0.066470913589001,0.106238499283791,2.28904604911804
174,0.101367428898811,-0.106728173792362,0.974111557006836,7.88847589492798,1.08412754535675,0.653691291809082,0.683879733085632,0.530242383480072,0.312886387109757,-0.083493083715439,0.204185232520103,2.29688429832458
175,0.294165074825287,-0.010732346214354,0.987778961658478,4.37556982040405,0.172782048583031,0.623665928840637,0.684717893600464,0.532215476036072,0.313060849905014,-0.208947405219078,0.198424622416496,2.31531691551208
176,0.09890728443861,-0.174554601311684,1.01842701435089,1.70027434825897,2.95627784729004,1.14272201061249,0.687175035476685,0.530596911907196,0.314129054546356,0.015418403781951,0.039362244307995,2.31817126274109
177,0.131610155105591,-0.051492359489203,0.934390723705291,2.44417452812195,2.81567764282227,-0.056374441832304,0.686547756195068,0.531947076320648,0.314516067504883,-0.083520442247391,0.183236628770828,2.31565308570862
178,0.401368588209152,-0.123287811875343,0.980766892433166,1.11140143871307,1.15555095672607,0.343718975782394,0.689112901687622,0.532072961330414,0.314620971679687,-0.058117754757404,-0.011143106035888,2.32367992401123
179,0.250466227531433,-0.136067777872086,1.01661920547485,-0.789750456809998,1.47658395767212,0.712560653686523,0.69002091884613,0.532941937446594,0.3147993683815,-0.12924200296402,-0.026425102725625,2.33327269554138
180,-0.028904305770993,-0.142541021108627,1.02019667625427,2.75441193580627,-0.026592558249831,0.570519328117371,0.691549777984619,0.532919108867645,0.313310593366623,-0.082975007593632,-0.085107088088989,2.33736562728882
181,0.054881479591131,-0.053442481905222,0.926079571247101,4.91598701477051,-0.222649306058884,0.513159155845642,0.692354142665863,0.532743394374847,0.313437938690186,-0.009057676419616,-0.065338365733624,2.34099102020264
182,0.135607078671455,-0.170921012759209,1.03942787647247,5.40399503707886,-2.84699940681458,0.619453251361847,0.69231116771698,0.532353222370148,0.313638538122177,0.095591194927693,0.049868684262037,2.34581017494202
183,0.14407080411911,-0.131943732500076,1.01724720001221,3.83846712112427,-3.31056118011475,0.907500267028809,0.692872762680054,0.531934201717377,0.315542429685593,0.20811527967453,0.122799217700958,2.35155844688416
184,0.069302760064602,-0.06108857318759,0.967299699783325,3.60247659683228,-2.51993870735168,0.551515579223633,0.694878995418549,0.531719982624054,0.315664708614349,0.283589959144592,0.049216315150261,2.35671043395996
185,0.015764677897096,0.009973539039493,0.978541851043701,3.02784204483032,-1.66628408432007,-0.21741072833538,0.696209013462067,0.531553328037262,0.315784186124802,0.340465128421783,0.048926718533039,2.35859704017639
186,0.035335101187229,-0.027496306225658,1.03566944599152,0.650508761405945,1.12356114387512,0.035402752459049,0.696198165416718,0.531394898891449,0.31702795624733,0.379310101270676,0.159374818205833,2.35814905166626
187,0.057639811187983,-0.077462308108807,0.971891224384308,-4.67349338531494,-0.108427181839943,-0.269540220499039,0.699263393878937,0.531617820262909,0.317117750644684,0.344698190689087,-0.04349110648036,2.35356450080872
188,0.06006995216012,0.001506788772531,0.936683416366577,-4.99006128311157,2.27085781097412,-0.099085845053196,0.699352264404297,0.532770335674286,0.317433327436447,0.183468341827393,0.045766282826662,2.35658478736877
189,-0.048132851719856,0.054280497133732,1.06668734550476,-6.7554087638855,1.66045463085175,-0.140871003270149,0.701046824455261,0.532473266124725,0.31755667924881,0.165668621659279,-0.035186048597097,2.35065126419067
190,0.357423901557922,-0.355710357427597,0.951912522315979,-3.9981541633606,-0.833103120326996,-0.582612991333008,0.70428341627121,0.532920360565185,0.316693723201752,0.088123045861721,-0.252266407012939,2.33779978752136
191,0.146363571286201,-0.244825959205627,0.961016833782196,-2.12615871429443,-4.97012519836426,0.385195225477219,0.703418552875519,0.533215582370758,0.31710159778595,0.028174862265587,-0.026342142373324,2.34903883934021
192,-0.012827165424824,0.14534018933773,1.07901978492737,-0.909641683101654,-4.78657913208008,1.4580796957016,0.70390909910202,0.533381938934326,0.317284286022186,0.005938858259469,0.064459547400475,2.36029648780823
193,-0.038580402731896,-0.02445269562304,0.919037878513336,1.11452901363373,-7.23784780502319,-1.39769744873047,0.705029904842377,0.533303439617157,0.315337330102921,0.033425696194172,0.106334649026394,2.36205124855041
194,0.216356247663498,-0.203633785247803,0.87605345249176,4.22658777236939,-6.21340084075928,-0.554459571838379,0.704526722431183,0.533125162124634,0.315405786037445,0.091196037828922,0.312671273946762,2.3624210357666
195,0.130778834223747,-0.280852347612381,1.04170405864716,4.67569160461426,-2.57794713973999,0.601969838142395,0.705029726028442,0.531932890415192,0.315275281667709,0.261921525001526,0.395254820585251,2.36391639709473
196,0.159542337059975,0.014622241258621,0.927885174751282,3.86417555809021,0.17624819278717,-0.848478436470032,0.707125127315521,0.531681060791016,0.317716211080551,0.332585036754608,0.315529406070709,2.35564017295837
197,0.05869435146451,-0.10445736348629,0.998672127723694,-0.220992654561996,4.29813432693481,0.266714721918106,0.707276999950409,0.532335937023163,0.317744135856628,0.282266020774841,0.366774886846542,2.36022782325745
198,0.036269828677178,-0.035888489335775,1.01500189304352,-4.20306205749512,7.55644273757935,0.179655507206917,0.710019707679749,0.532632350921631,0.317597270011902,0.229554697871208,0.133544951677322,2.35558390617371
199,0.178379729390144,-0.046992246061564,0.987711489200592,-7.67594146728516,8.56723594665527,0.663267731666565,0.70973002910614,0.532915830612183,0.317693829536438,0.142891511321068,0.17598982155323,2.36263942718506
200,0.191961273550987,-0.106457136571407,0.99431848526001,-7.53757047653198,5.77077102661133,0.633316576480866,0.710997641086578,0.5334312915802,0.317736804485321,0.026098303496838,0.062503106892109,2.37049460411072
201,0.024569492787123,-0.014646709896624,1.01018881797791,-6.77341079711914,4.50043773651123,1.47714483737946,0.71293443441391,0.533303499221802,0.317618489265442,-0.033451188355684,-0.087911583483219,2.37458229064941
202,0.167200073599815,-0.150573417544365,0.997607052326202,-5.00459814071655,1.55653786659241,1.39418625831604,0.713195264339447,0.533733665943146,0.317668676376343,-0.122948974370956,-0.053022440522909,2.39069366455078
203,0.172695860266686,-0.033620364964008,0.966147482395172,2.03377366065979,-1.37426435947418,0.675340116024017,0.713155329227448,0.533128201961517,0.315497577190399,-0.069072835147381,0.038452751934528,2.39950609207153
204,0.022680629044771,0.009640300646424,1.03443706035614,4.81879663467407,-4.70652294158936,0.891399621963501,0.714589536190033,0.532216250896454,0.315302491188049,0.053124733269215,0.023607032373548,2.39922571182251
205,0.127391174435616,-0.043226175010204,0.9510338306427,5.47087812423706,-4.24198627471924,1.08568966388702,0.715766727924347,0.533462822437286,0.31510779261589,-0.008826444856822,0.047581769526005,2.40780711174011
206,0.026156155392528,-0.032612893730402,1.06166338920593,8.35579490661621,-4.13992261886597,0.573273479938507,0.718587279319763,0.532340347766876,0.314756065607071,0.177258178591728,-0.069423362612724,2.40805912017822
207,0.048019703477621,-0.11157052218914,0.999253273010254,4.25445747375488,-1.88374876976013,0.396437287330627,0.719232022762299,0.531896114349365,0.314624696969986,0.271994560956955,0.010321720503271,2.41724348068237
208,0.091500997543335,-0.103187136352062,0.957359075546265,0.331345170736313,0.242802888154984,0.84400874376297,0.719058752059937,0.532396018505096,0.314616203308106,0.244159027934074,0.137500375509262,2.42883682250977
209,-0.058665506541729,-0.015230896882713,1.0834242105484,-4.22339010238647,0.203997641801834,-0.237465769052505,0.71976238489151,0.532372832298279,0.313318461179733,0.231810495257378,0.172088503837585,2.43127584457397
210,0.058344289660454,-0.114089570939541,0.949976921081543,-5.38027048110962,1.19310128688812,-0.041704393923283,0.721322953701019,0.532842934131622,0.313088238239288,0.132093235850334,0.104275032877922,2.43069839477539
211,0.118432804942131,-0.205163225531578,1.0528804063797,-6.90906143188477,3.36658930778503,0.302461117506027,0.722987949848175,0.531754791736603,0.312847852706909,0.163604035973549,0.018895721063018,2.42784643173218
212,0.170122563838959,-0.143901810050011,1.02184331417084,-5.38095426559448,3.25163984298706,0.466684520244598,0.723917901515961,0.532274901866913,0.312715202569962,0.040722161531448,-0.011655803769827,2.42984008789062
213,0.218602538108826,-0.209289953112602,1.03654253482819,-3.6718897819519,1.57591772079468,0.353640615940094,0.724935352802277,0.532675743103027,0.315759509801865,-0.050060342997313,-0.038225077092648,2.4389021396637
214,-0.068386882543564,-0.228734835982323,1.03255546092987,-0.684246182441711,-0.693964898586273,0.675404250621796,0.725715637207031,0.532981872558594,0.315855920314789,-0.111949928104877,-0.024881606921554,2.44557452201843
215,0.097708955407143,-0.025803642347455,0.952978789806366,-0.564943015575409,-2.95894336700439,0.359684199094772,0.72723001241684,0.533047378063202,0.315903037786484,-0.120511412620544,-0.058630041778088,2.4494366645813
216,0.001625354401767,0.038739420473576,1.05268085002899,3.55682730674744,-2.37349724769592,0.253201097249985,0.727742612361908,0.533011436462402,0.31539848446846,-0.096583917737007,0.015836589038372,2.45292210578918
217,0.037650097161532,0.016436075791717,0.995627462863922,5.51161193847656,-4.60485792160034,0.520170211791992,0.729217290878296,0.531230032444,0.315446764230728,0.112080544233322,0.010328716598451,2.45706033706665
218,0.058037485927343,0.010434146970511,0.994325399398804,4.25826263427734,-4.4862585067749,0.905001223087311,0.728883862495422,0.53242951631546,0.315673559904098,0.035880945622921,0.176367104053497,2.46902203559875
219,0.063625805079937,-0.009297860786319,1.00258612632751,2.51720595359802,-2.90649175643921,0.803231596946716,0.730930030345917,0.532216787338257,0.315426260232925,0.09720328450203,0.119104795157909,2.47524762153625
220,0.032710663974285,-0.167003348469734,0.963430404663086,-0.532779455184937,-0.706117868423462,-0.289212852716446,0.732429206371307,0.53217077255249,0.315410077571869,0.107852905988693,0.099702909588814,2.48063969612122
221,0.349552571773529,-0.124813936650753,1.07570517063141,-2.22835683822632,2.79987907409668,0.736446499824524,0.734732806682587,0.532254278659821,0.315321058034897,0.093376897275448,-0.015981866046786,2.4794385433197
222,0.316854506731033,-0.130104407668114,0.910838544368744,-4.37269067764282,2.66292667388916,0.230349734425545,0.734882831573486,0.530809164047241,0.315472573041916,0.187503919005394,0.065528273582459,2.48331427574158
223,0.056765757501125,0.039636168628931,1.00692653656006,-5.88757848739624,-0.609621942043304,-0.616820931434631,0.735695004463196,0.532002329826355,0.316415399312973,0.011707600206137,0.078420005738735,2.48460173606873
224,0.231194198131561,0.016807364299893,1.04281175136566,-6.59651136398315,-0.95404464006424,-0.921852290630341,0.736375033855438,0.532567262649536,0.316513806581497,-0.1196179240942,0.110320173203945,2.48172616958618
225,0.28096804022789,-0.078665502369404,0.925667822360992,-6.04470539093018,-2.45665717124939,-0.528832137584686,0.738708317279816,0.532308697700501,0.316468864679337,-0.156390815973282,-0.001277920906432,2.47188901901245
226,0.236960157752037,0.013881303369999,1.09830069541931,-6.93074083328247,-4.1895637512207,-2.81122446060181,0.740052819252014,0.531136095523834,0.314982414245606,-0.100151807069778,0.004289547912776,2.45706343650818
227,0.137283399701119,-0.059407435357571,1.02027177810669,-0.142366826534271,-3.50810933113098,-0.104651845991611,0.740584075450897,0.531596958637237,0.315030008554459,-0.191039651632309,0.083961427211762,2.45188450813293
228,0.07680869102478,-0.010131070390344,1.03200876712799,2.54838705062866,-5.34026050567627,-0.820229232311249,0.740364015102387,0.531554996967316,0.315190821886063,-0.187784641981125,0.239017441868782,2.45044469833374
229,0.046988613903523,-0.054771326482296,1.07241570949554,4.09062242507935,-2.4488217830658,-0.653887331485748,0.741602063179016,0.531423032283783,0.315509796142578,-0.141416952013969,0.257071197032928,2.43977642059326
230,0.103789255023003,0.100419454276562,0.860288560390472,8.87884521484375,-4.49486923217773,0.826408207416534,0.743918538093567,0.530506193637848,0.315520644187927,-0.022780954837799,0.168165728449822,2.43721532821655
231,0.030727362260223,0.060794271528721,0.873217165470123,-0.931970179080963,0.388277292251587,-0.581523776054382,0.745174288749695,0.530841052532196,0.315499097108841,-0.02155688777566,0.1815425157547,2.43434429168701
232,0.014407985843718,-0.029395125806332,0.980254113674164,-2.55354166030884,2.32202577590942,-1.29932248592377,0.744343519210815,0.531632661819458,0.316415935754776,-0.120655201375484,0.351539671421051,2.42481136322021
233,0.107353240251541,-0.001229017158039,0.948699951171875,-4.50269746780396,1.83341538906097,-1.56614363193512,0.745956480503082,0.531915903091431,0.316289365291595,-0.181917861104012,0.27935004234314,2.41007733345032
234,0.022350508719683,-0.044021803885698,1.01634168624878,-5.30280303955078,4.27917671203613,-1.02324569225311,0.747710049152374,0.531576156616211,0.316124618053436,-0.203277319669723,0.178079396486282,2.39846134185791
235,0.0644271671772,-0.065287575125694,0.987039268016815,-3.2054431438446,1.16519355773926,-1.71139752864838,0.74785327911377,0.531895458698273,0.316092669963837,-0.27692174911499,0.230641946196556,2.38046550750732
236,0.17521645128727,-0.110556572675705,1.01744997501373,-0.956437706947327,1.18902993202209,-1.22833478450775,0.751184046268463,0.53054404258728,0.317918121814728,-0.164101660251617,0.008236798457801,2.36373043060303
237,-0.056916702538729,-0.060573466122151,1.01635634899139,0.002729237778112,-1.563068151474,-1.09712374210358,0.751108884811401,0.531475067138672,0.318076401948929,-0.273637920618057,0.114764340221882,2.35361123085022
238,0.137023001909256,-0.11042208224535,0.96896231174469,1.15227389335632,-2.85362410545349,-0.506446540355682,0.751753509044647,0.531448900699616,0.318151086568832,-0.265073508024216,0.172681748867035,2.34102845191956
239,0.140769794583321,-0.143521651625633,1.03257894515991,3.83097815513611,-4.8815598487854,-1.84922575950623,0.754630506038666,0.529904425144196,0.317313700914383,-0.095410861074925,0.054695934057236,2.3275249004364
240,0.1478660851717,0.014433504082263,1.0747435092926,3.16540861129761,-5.96589136123657,-1.05250775814056,0.754263997077942,0.531251966953278,0.317512780427933,-0.203645378351212,0.240574061870575,2.31827020645142
241,0.458674013614655,-0.103111803531647,0.931276440620422,1.40742003917694,-5.16202926635742,-1.10714972019196,0.756232142448425,0.531187891960144,0.317447513341904,-0.176116704940796,0.221734598278999,2.30693817138672
242,0.12644849717617,0.018658488988876,1.06980013847351,-0.10632511228323,-4.38411474227905,-1.42119824886322,0.756619155406952,0.531163930892944,0.313518911600113,-0.17059950530529,0.329458922147751,2.29571270942688
243,0.217115640640259,0.091162249445915,0.982411563396454,0.05658783018589,-2.91821956634521,-2.16187763214111,0.75715446472168,0.531172454357147,0.313351333141327,-0.172052651643753,0.421613454818726,2.27902984619141
244,0.168730482459068,-0.096854448318482,0.948200166225433,-0.3129723072052,2.1114706993103,-0.663506329059601,0.758566915988922,0.530414819717407,0.31311023235321,-0.10312981903553,0.394948691129684,2.2629930973053
245,0.052361961454153,0.012657340615988,1.06324470043182,0.879963755607605,2.44191741943359,-1.93914496898651,0.758593738079071,0.531155943870544,0.312968194484711,-0.17074479162693,0.472791701555252,2.24616622924805
246,0.528705418109894,0.001370504964143,0.958710074424744,-0.154766574501991,3.0953733921051,-1.2448263168335,0.760440170764923,0.531258463859558,0.315913647413254,-0.176251485943794,0.357307970523834,2.23720979690552
247,0.45406511425972,0.032431926578283,1.04179620742798,-1.31000399589539,5.082444190979,-0.705436944961548,0.763834774494171,0.529080450534821,0.315717577934265,0.017176995053887,0.10779095441103,2.2183256149292
248,0.237984001636505,-0.013455407693982,1.01011323928833,-2.22071409225464,2.17617964744568,-1.92157566547394,0.765589594841003,0.529230713844299,0.315633773803711,-0.030265918001533,0.025089407339692,2.20235657691956
249,0.174135372042656,0.037310518324375,0.977897047996521,-2.49306559562683,-2.25627708435059,-0.855993390083313,0.764834344387054,0.529377400875092,0.314244568347931,-0.093710713088513,0.196978360414505,2.19064426422119
250,0.018246104940772,-0.039283599704504,0.994126379489899,-2.80116868019104,-5.06089162826538,-0.329396605491638,0.766165792942047,0.529705107212067,0.314104616641998,-0.170905962586403,0.205854818224907,2.18633818626404
251,0.013307632878423,0.011732066981495,0.985800921916962,-3.19375514984131,-7.29524230957031,-0.440121918916702,0.766490519046783,0.530700862407684,0.314059108495712,-0.297998309135437,0.33256584405899,2.18462657928467
252,0.01848322711885,0.007419630419463,0.995554089546204,1.99627566337585,-8.49197673797607,-1.98943841457367,0.767581760883331,0.530187010765076,0.31499832868576,-0.261402785778046,0.405006855726242,2.16974234580994
253,0.077720485627651,-0.04344829171896,1.08580029010773,2.0889904499054,-7.59324645996094,-1.379021525383,0.768590986728668,0.530057728290558,0.314946353435516,-0.231187462806702,0.480768501758575,2.15351247787476
254,0.098036900162697,-0.232788935303688,0.958306729793549,4.59186792373657,-3.27791571617126,-1.00883388519287,0.768181920051575,0.529811561107636,0.315026938915253,-0.173842757940292,0.663771033287048,2.13536167144775
255,0.205982059240341,-0.052687209099531,1.03987240791321,3.63967251777649,2.59399557113647,-0.454768866300583,0.771212637424469,0.529628574848175,0.314925193786621,-0.106619812548161,0.472373068332672,2.1323254108429
256,0.520913183689117,-0.043098550289869,0.962629020214081,-2.28730249404907,5.15758800506592,-0.724843502044678,0.772316753864288,0.52959281206131,0.314922481775284,-0.10626307874918,0.431875854730606,2.12676429748535
257,0.337007164955139,-0.08670012652874,1.02131748199463,-2.89910101890564,7.62118816375732,-1.63318359851837,0.772706925868988,0.529735922813416,0.314952075481415,-0.144438683986664,0.438551157712936,2.1142361164093
258,0.038226891309023,-0.261985033750534,1.04342603683472,-4.84190511703491,6.31232929229736,-2.20746755599976,0.774840652942658,0.530125916004181,0.314853668212891,-0.220374390482903,0.263496160507202,2.10583019256592
259,0.101421788334847,-0.178546875715256,0.969629168510437,-5.2855019569397,6.00814390182495,-1.11110246181488,0.775388181209564,0.530515015125275,0.318778187036514,-0.310650289058685,0.255743622779846,2.0945873260498
260,0.256048977375031,-0.019392810761929,1.06882262229919,-4.26355075836182,3.31517195701599,-0.971075594425201,0.776496350765228,0.530924201011658,0.319013714790344,-0.390333980321884,0.205327153205872,2.08776235580444
261,0.098318368196488,-0.05873953178525,0.943595707416534,-1.60319185256958,-1.77831983566284,-1.37397086620331,0.77815192937851,0.53047525882721,0.319245517253876,-0.367211401462555,0.149333417415619,2.07503008842468
262,0.43494987487793,-0.029960682615638,0.915627956390381,2.63682913780212,-5.26670742034912,-1.54573225975037,0.77946674823761,0.530523240566254,0.317673444747925,-0.357921719551086,0.156679376959801,2.06095838546753
263,0.247288003563881,-0.21139894425869,1.07046806812286,3.68588852882385,-6.43085384368897,-0.736877143383026,0.778173267841339,0.530165553092957,0.318037062883377,-0.297030836343765,0.444916993379593,2.03961515426636
264,0.157685399055481,-0.156516581773758,1.01387095451355,6.78543043136597,-9.23808860778809,-1.76679468154907,0.780024111270904,0.529939353466034,0.318154156208038,-0.219309866428375,0.428097128868103,2.0319287776947
265,0.010844632051885,-0.096026428043842,0.957626342773438,5.43600225448608,-7.18208837509155,-1.68727946281433,0.781931161880493,0.529649972915649,0.319893151521683,-0.138335540890694,0.40675562620163,2.02043128013611
266,0.281186908483505,-0.015114339068532,1.04783809185028,1.473313331604,-3.77163004875183,-1.48419630527496,0.782160580158233,0.529980480670929,0.320211738348007,-0.131289169192314,0.532246530056,2.00299739837646
267,0.231733188033104,-0.059613920748234,0.95808732509613,-2.3258011341095,-1.32510280609131,-2.37816977500916,0.785074353218079,0.530112862586975,0.320356428623199,-0.141614392399788,0.374073892831802,1.99013793468475
268,0.333258926868439,-0.226760193705559,1.00916159152985,-3.6223201751709,1.08173263072968,-1.59495890140533,0.785115897655487,0.531163215637207,0.320726215839386,-0.272766917943955,0.461550444364548,1.9732825756073
269,0.107505321502686,0.087417334318161,1.05132961273193,-4.48539352416992,2.54528450965881,-2.11801075935364,0.786873519420624,0.530770242214203,0.320669203996658,-0.260900259017944,0.380271166563034,1.95229148864746
270,0.083765782415867,0.028031161054969,0.91311901807785,-6.33131694793701,1.93880259990692,-2.70228219032288,0.787073791027069,0.530325174331665,0.320990204811096,-0.27557235956192,0.449711680412293,1.92612791061401
271,0.0722835958004,-0.040536429733038,0.96761816740036,-5.48193979263306,3.22273755073547,-1.93851292133331,0.78721684217453,0.530725657939911,0.321265935897827,-0.364411771297455,0.502936959266663,1.90468716621399
272,0.071271434426308,0.115474209189415,1.07457792758942,-2.56980586051941,1.99421226978302,-3.04517102241516,0.78730434179306,0.531836211681366,0.321381598711014,-0.491859763860703,0.560702264308929,1.87996482849121
273,0.189644247293472,-0.079562164843083,0.954207479953766,0.691341638565064,3.17954277992249,-1.87455701828003,0.789048850536346,0.53040999174118,0.321620792150497,-0.353151828050613,0.458676099777222,1.85083961486816
274,0.178532779216766,-0.008163082413375,0.918923258781433,2.0654833316803,3.64680290222168,-1.37152886390686,0.789269685745239,0.530234038829803,0.321869105100632,-0.313040673732758,0.48069566488266,1.83004152774811
275,0.006995226722211,0.007317223120481,1.04442620277405,1.11684226989746,2.62086248397827,-2.18207716941833,0.790217101573944,0.530079066753387,0.321295201778412,-0.283150106668472,0.436188012361527,1.81167876720428
276,0.035372152924538,-0.15910105407238,0.989862203598022,1.52012729644775,1.43186259269714,-2.20865654945374,0.791946947574616,0.530131638050079,0.321368306875229,-0.278762370347977,0.324772179126739,1.79041886329651
277,0.146705999970436,-0.07724392414093,0.931517839431763,-0.014623109251261,1.68539488315582,-2.43376350402832,0.794471800327301,0.530943930149078,0.321344614028931,-0.3359035551548,0.147762849926949,1.77371156215668
278,0.268255770206451,0.008638828992844,0.987652719020844,-0.514236688613892,1.92587637901306,-2.2028317451477,0.793759882450104,0.530962884426117,0.321625679731369,-0.344278335571289,0.290554732084274,1.7457686662674
279,0.20661050081253,0.003406489733607,1.06009078025818,-0.908974707126617,-0.960860729217529,-1.47005879878998,0.79545384645462,0.531108260154724,0.319934070110321,-0.358023971319199,0.203277170658112,1.73187327384949
280,0.049436662346125,0.030622955411673,0.973330974578857,0.006212703883648,-0.299405664205551,-2.40799117088318,0.79701840877533,0.531221032142639,0.31983956694603,-0.356715679168701,0.154236570000649,1.71304082870483
281,0.040229719132185,-0.009057317860425,0.937848627567291,1.62273991107941,-0.373585999011993,-1.90927231311798,0.796925485134125,0.53113728761673,0.319901704788208,-0.330876976251602,0.274703204631805,1.68672919273376
282,-0.028429375961423,-0.034336254000664,1.18457043170929,-3.50819754600525,-8.86001205444336,-1.73580574989319,0.796937704086304,0.531003177165985,0.320989519357681,-0.306226342916489,0.377684146165848,1.66749346256256
283,0.01234770193696,0.083771623671055,1.16983473300934,2.57444787025452,2.84334373474121,-2.14273142814636,0.79808634519577,0.531124174594879,0.321100533008575,-0.299377292394638,0.376203417778015,1.64859485626221
284,0.104604512453079,-0.006817650515586,1.00633013248444,4.67889213562012,4.41057920455933,-1.49248421192169,0.799156486988068,0.530919015407562,0.321364223957062,-0.230825886130333,0.324132591485977,1.63108253479004
285,0.177164644002914,-0.064236924052239,0.955014288425446,1.69451975822449,5.82771492004395,-1.54780924320221,0.799452066421509,0.530648052692413,0.321087270975113,-0.174753308296204,0.32361176609993,1.61144411563873
286,0.304272681474686,-0.068151563405991,0.992244839668274,0.577410340309143,5.15946960449219,-2.33953428268433,0.800544440746307,0.530542731285095,0.321317583322525,-0.147811055183411,0.250588059425354,1.59332776069641
287,0.156725868582726,-0.190755575895309,0.988387703895569,-0.347662717103958,5.08661031723022,-1.75287914276123,0.801719725131989,0.53144097328186,0.321536421775818,-0.233983486890793,0.15421923995018,1.5771496295929
288,0.106643170118332,-0.148328244686127,0.914361953735352,-2.73207020759583,4.49418592453003,-2.33410024642944,0.803696155548096,0.531632781028748,0.321630924940109,-0.261199951171875,-0.010196842253208,1.55882036685944
289,0.112485185265541,0.000353707844624,1.05712151527405,-0.791956961154938,3.20432019233704,-1.87262284755707,0.804681122303009,0.531097292900085,0.31972348690033,-0.228160962462425,-0.049340710043907,1.53726136684418
290,0.027035880833864,-0.006261713337153,0.989112079143524,-1.85115361213684,-0.605344951152802,-0.817615926265717,0.804911196231842,0.531143188476563,0.31983357667923,-0.2475895434618,-0.008493838831782,1.52426409721375
291,0.074163213372231,-0.148920774459839,0.936538755893707,-0.57256418466568,-0.664626479148865,-1.20878005027771,0.806397020816803,0.531305551528931,0.319813966751099,-0.267260819673538,-0.064600996673107,1.51589250564575
292,0.170651704072952,-0.065786316990852,0.955962717533112,1.94541716575623,-4.60512256622314,-1.03914093971252,0.806219339370727,0.531297445297241,0.318889051675796,-0.257407009601593,0.065047726035118,1.50201082229614
293,0.253800392150879,0.077279955148697,1.07046461105347,0.872358918190002,-1.87424755096436,-0.543034613132477,0.806023836135864,0.531975030899048,0.318868458271027,-0.305002897977829,0.182984665036202,1.49012327194214
294,0.034714508801699,-0.096236936748028,0.980094015598297,4.80074119567871,1.99411761760712,-1.44714963436127,0.807456314563751,0.531861543655396,0.318780273199081,-0.248856320977211,0.12559075653553,1.48287808895111
295,0.094658747315407,-0.002725119702518,0.932057797908783,4.62091779708862,4.49068021774292,-0.252033084630966,0.810103297233581,0.531599819660187,0.317999660968781,-0.159569352865219,-0.086392268538475,1.47757792472839
296,0.02840330824256,-0.396327912807465,1.0802206993103,4.25605583190918,5.04526996612549,-0.520462691783905,0.811995923519135,0.531298756599426,0.317756652832031,-0.067124158143997,-0.215918302536011,1.47170722484589
297,0.07097738981247,-0.182432889938355,0.968233168125153,4.58583211898804,3.69792723655701,-0.580615818500519,0.811569452285767,0.53175151348114,0.317819744348526,-0.065600730478764,-0.109253421425819,1.46833312511444
298,0.318854242563248,-0.00595253938809,0.911413609981537,2.58680486679077,2.12105464935303,-0.952341139316559,0.814209461212158,0.531530916690826,0.318360298871994,0.013347512111068,-0.305320054292679,1.46403753757477
299,0.054563384503126,-0.140560105443001,1.02794361114502,1.20445466041565,2.25821685791016,-0.358781367540359,0.815858960151672,0.53150475025177,0.318159371614456,0.038525644689798,-0.364862352609634,1.45444345474243
300,0.105343170464039,-0.119404800236225,1.03594279289246,-1.6905665397644,-3.86088252067566,0.053393252193928,0.815146207809448,0.533772885799408,0.318293690681458,-0.198170199990272,-0.177853807806969,1.44834399223328
301,0.17758609354496,-0.110065370798111,0.918349981307983,-1.73632383346558,-6.72748041152954,-0.571958124637604,0.814824819564819,0.532279551029205,0.318403542041779,-0.029462030157447,0.014872065745294,1.45047032833099
302,0.05920359492302,-0.075310811400414,0.982551991939545,-0.17710354924202,-5.14369058609009,0.729608297348022,0.816695809364319,0.53317129611969,0.314932972192764,-0.121705763041973,-0.038017258048058,1.45515286922455
303,0.301743060350418,0.164838388562202,1.06333756446838,1.76888823509216,-1.43642556667328,1.67103004455566,0.816523611545563,0.532374739646912,0.31472784280777,-0.016769129782915,0.105354771018028,1.47004580497742
304,0.278515130281448,-0.330504566431046,0.981955409049988,1.64741957187653,1.33571457862854,2.17180109024048,0.820329487323761,0.532341718673706,0.314266622066498,0.022740308195353,-0.187038376927376,1.4861466884613
305,0.262123465538025,-0.243165567517281,1.03398275375366,0.726146936416626,1.4556999206543,3.35731625556946,0.820536196231842,0.533785581588745,0.315349191427231,-0.112641043961048,-0.117290534079075,1.51205205917358
306,0.251981019973755,-0.048990149050951,0.997715592384338,1.11841154098511,0.722457349300385,2.34414100646973,0.821477055549622,0.533766031265259,0.315168499946594,-0.078448064625263,-0.125530377030373,1.53868806362152
307,0.228503108024597,-0.16770738363266,1.02635979652405,3.99196767807007,0.755414485931397,2.30049014091492,0.823949098587036,0.532921612262726,0.314851552248001,0.059453338384628,-0.283017963171005,1.5717511177063
308,-0.006067539565265,-0.290597528219223,1.0973562002182,1.76888883113861,-2.19425749778748,3.30252742767334,0.824794590473175,0.532827436923981,0.315500885248184,0.098093457520008,-0.246437594294548,1.59920394420624
309,0.224951699376106,-0.115222677588463,0.991306900978088,2.83617520332336,-2.56813764572144,2.92331838607788,0.823878645896912,0.533375918865204,0.315633863210678,0.067848153412342,-0.013042941689491,1.63059425354004
310,0.295100659132004,-0.331058174371719,1.05674004554749,3.0064070224762,-5.71578454971314,3.27740955352783,0.825173318386078,0.533262550830841,0.315555453300476,0.116141557693481,-0.005255250725895,1.6627608537674
311,0.163995504379272,-0.171548306941986,0.962982654571533,1.19929885864258,-4.24312305450439,2.70398831367493,0.827146410942078,0.534688949584961,0.315431445837021,-0.006942881271243,-0.070922702550888,1.67972123622894
312,0.168279021978378,0.044593393802643,1.04899168014526,1.66145408153534,-2.7301914691925,2.38863635063171,0.828361093997955,0.534581780433655,0.312792629003525,0.044087965041399,-0.056616302579641,1.70811820030212
313,-0.055206555873156,-0.006666179280728,1.03085279464722,2.98155212402344,-3.31271767616272,2.39386868476868,0.829760432243347,0.534533679485321,0.312592834234238,0.087356023490429,-0.066205747425556,1.73400783538818
314,0.061694502830505,-0.043509915471077,0.971305787563324,2.98358058929443,0.402433902025223,2.61994981765747,0.830461025238037,0.535068571567535,0.312482506036758,0.080735251307488,-0.022826302796602,1.75580143928528
315,0.060423251241446,0.083459556102753,1.04328715801239,3.69970154762268,-1.8275089263916,3.4029586315155,0.830462515354157,0.534909009933472,0.313271760940552,0.149009376764298,0.103807277977467,1.79276835918427
316,0.011984418146312,-0.1118288859725,0.941075682640076,2.00596499443054,-1.44218873977661,2.86501407623291,0.832683742046356,0.534794330596924,0.313087940216064,0.205032914876938,-0.017795404419303,1.82004451751709
317,0.031234422698617,-0.027430556714535,1.11792874336243,2.5762894153595,0.228231653571129,2.76624059677124,0.834152162075043,0.53539776802063,0.312955141067505,0.180571869015694,-0.057455573230982,1.84497976303101
318,0.070881016552448,-0.062842108309269,0.954949378967285,2.46659326553345,-1.32235622406006,2.54939556121826,0.83650803565979,0.53465735912323,0.315210968255997,0.295975893735886,-0.171069785952568,1.8749862909317
319,0.227203026413918,-0.051293816417456,1.02728724479675,1.88056242465973,-1.63064002990723,2.75633358955383,0.836466252803803,0.536762654781342,0.315475285053253,0.101484052836895,-0.043619591742754,1.8975293636322
320,0.526728928089142,0.013159763999283,0.938472926616669,2.02435922622681,-3.28304481506348,3.33576440811157,0.837818264961243,0.535115718841553,0.315629839897156,0.330479145050049,-0.031546920537949,1.93822956085205
321,0.068729013204575,-0.168804615736008,1.01903104782105,3.56460332870483,-6.87411737442017,3.09481334686279,0.838278234004974,0.535826981067658,0.315819144248962,0.282226920127869,0.08535448461771,1.97138547897339
322,0.088067084550858,-0.267704278230667,1.03917741775513,0.640765845775604,-5.39517164230347,2.49517273902893,0.838644862174988,0.536501705646515,0.315704941749573,0.239842265844345,0.20561708509922,2.00116395950317
323,0.18275211751461,-0.017044339329004,1.01147294044495,2.28389358520508,-3.49140548706055,1.94172215461731,0.840509235858917,0.536436915397644,0.315782099962234,0.27756541967392,0.167808175086975,2.01858162879944
324,0.214374050498009,-0.037002734839916,1.05993151664734,0.744819521903992,-3.05648040771484,1.96400582790375,0.841117858886719,0.536377370357513,0.31596314907074,0.314742475748062,0.239128932356834,2.04575538635254
325,0.124001957476139,-0.080902673304081,0.918591260910034,0.808565318584442,-0.14940670132637,1.92596960067749,0.843236923217773,0.537034928798676,0.315042406320572,0.271602660417557,0.137262895703316,2.05995059013367
326,-0.001929837162606,-0.011699219234288,1.02271485328674,0.995081782341003,0.909896075725555,1.31642186641693,0.84464555978775,0.536247253417969,0.31508269906044,0.382358372211456,0.121820248663425,2.07740569114685
327,0.213702008128166,-0.003172977361828,0.953971862792969,-3.07453227043152,0.309898465871811,0.850274503231049,0.84470146894455,0.537153601646423,0.315251350402832,0.281850159168243,0.226012974977493,2.0970892906189
328,0.209261029958725,-0.217083185911179,1.05113756656647,-1.50794744491577,1.71957445144653,1.05935597419739,0.845703363418579,0.536656856536865,0.32048287987709,0.323124200105667,0.240034759044647,2.10805940628052
329,0.152974560856819,-0.101428389549255,0.950753808021545,-1.7681736946106,0.90637743473053,1.06539738178253,0.847272515296936,0.537587642669678,0.320787817239761,0.225039198994637,0.180035322904587,2.11276769638062
330,0.111863277852535,0.006715373136103,0.971112549304962,-2.888108253479,1.74642479419708,1.24277973175049,0.848211348056793,0.537017405033112,0.321120172739029,0.276094615459442,0.188603281974792,2.12647247314453
331,-0.037192031741142,0.001184986555018,1.0375075340271,-3.15765166282654,2.33915090560913,1.23946106433868,0.849145650863647,0.537214338779449,0.321435242891312,0.236536994576454,0.182831570506096,2.1407949924469
332,0.105236351490021,-0.508269786834717,0.934454798698425,-2.21159744262695,-1.20862483978271,-0.312680780887604,0.849192678928375,0.537473678588867,0.318138003349304,0.196170836687088,0.267579108476639,2.14973163604736
333,0.124624855816364,-0.329786062240601,1.04522860050201,-0.175634115934372,1.00507307052612,0.204938113689423,0.85084855556488,0.537681519985199,0.318187177181244,0.162579894065857,0.185430228710175,2.14950394630432
334,0.181112557649612,-0.017943589016795,0.968507170677185,-0.555830359458923,0.480155795812607,0.400511115789414,0.853937029838562,0.537653863430023,0.318083673715591,0.179994806647301,-0.02744865603745,2.13145279884338
335,0.044312559068203,-0.117483161389828,0.944587647914886,-2.38657546043396,-0.354970216751099,0.884210228919983,0.855457842350006,0.53770512342453,0.315688967704773,0.17398789525032,-0.070508264005184,2.13704180717468
336,0.032458700239658,0.042281862348318,1.02252423763275,-1.11601376533508,-3.07006311416626,0.737058579921722,0.855367183685303,0.537977278232574,0.315741658210754,0.129564672708511,0.068775743246079,2.1565272808075
337,0.235609740018845,0.00346689322032,0.90080177783966,-1.2815648317337,0.97366201877594,2.22127747535706,0.855042397975922,0.538097381591797,0.315782994031906,0.109760709106922,0.242931887507439,2.17704176902771
338,0.332555055618286,-0.380511850118637,0.869927167892456,-2.4172158241272,-5.2824010848999,-0.198039278388023,0.856801688671112,0.538188755512237,0.316595494747162,0.093924909830093,0.162487640976906,2.18471455574036
339,0.071356803178787,-0.284614533185959,0.997927665710449,-1.0241551399231,-5.74025201797485,0.852955222129822,0.85783839225769,0.538279294967651,0.316322058439255,0.086665958166123,0.229358226060867,2.18882966041565
340,0.107579991221428,-0.089416682720184,0.971502184867859,-0.964540958404541,-3.75383901596069,0.691888809204102,0.859056293964386,0.538332343101501,0.31601482629776,0.085194826126099,0.262548267841339,2.2001371383667
341,-0.048920709639788,0.018535794690251,1.03540551662445,-1.49814820289612,-3.24333477020264,-0.406012266874313,0.858750224113464,0.538416385650635,0.316226154565811,0.079735793173313,0.441262871026993,2.20665502548218
342,0.146508991718292,0.040906079113484,0.967131435871124,-1.52962100505829,1.36302840709686,0.894693851470947,0.860940277576447,0.53860080242157,0.315899550914764,0.054172039031983,0.333401381969452,2.20560193061829
343,0.07108261436224,-0.230700448155403,0.9731605052948,-0.741534531116486,4.34873533248901,-0.216417878866196,0.862756371498108,0.53719174861908,0.315568506717682,0.1866375207901,0.234697103500366,2.20066452026367
344,0.385541349649429,-0.01961038634181,0.957414984703064,-2.14282274246216,5.65598678588867,0.588310420513153,0.862310230731964,0.538066804409027,0.315440684556961,0.086474105715752,0.332894712686539,2.21030235290527
345,0.205245941877365,-0.108873710036278,1.00992321968079,-2.36422252655029,4.15429067611694,1.26928758621216,0.863392531871796,0.538315832614899,0.315653473138809,0.03888401389122,0.269975632429123,2.21961951255798
346,0.074368737637997,0.004459582269192,1.04171931743622,-2.54994964599609,3.87605714797974,1.27617204189301,0.865954637527466,0.538534581661224,0.315263599157333,-0.001641570357606,0.067685566842556,2.223792552948
347,0.124291181564331,0.041310835629702,1.00145506858826,-1.87308144569397,2.89401531219482,1.57509553432465,0.866922914981842,0.53871876001358,0.315009772777557,-0.033998675644398,0.042000100016594,2.23732900619507
348,0.026143396273255,-0.027400018647313,1.07673108577728,-0.372379004955292,-0.088102087378502,1.07130944728851,0.867937028408051,0.538178026676178,0.312391430139542,0.009638465940952,0.032396126538515,2.25262665748596
349,0.080971099436283,0.060191001743078,0.738129019737244,0.276945501565933,-2.71132493019104,1.75211572647095,0.867135941982269,0.539156675338745,0.312089830636978,-0.045343540608883,0.212139025330544,2.28259706497192
350,0.23161980509758,-0.026824705302715,1.01664447784424,2.20159649848938,-2.97266483306885,1.29919278621674,0.86679869890213,0.539161086082459,0.311557650566101,-0.026232911273837,0.362324595451355,2.29936480522156
351,0.093509495258331,-0.060200080275536,0.990718901157379,2.48789763450623,-4.52560234069824,2.02846121788025,0.869728922843933,0.537593603134155,0.310345560312271,0.152299225330353,0.195286959409714,2.308758020401
352,0.026720002293587,0.088758997619152,1.052041888237,0.78128308057785,-2.31646347045898,1.74576508998871,0.870244383811951,0.537409901618958,0.309734016656876,0.185028433799744,0.264503180980682,2.3242518901825
353,-0.081196740269661,-0.078911229968071,1.02669835090637,0.955008625984192,0.635932445526123,1.35296154022217,0.871621489524841,0.537449240684509,0.309095770120621,0.183886915445328,0.228173896670341,2.3372790813446
354,0.246216833591461,0.030860068276525,0.987919211387634,0.17997881770134,2.6015100479126,1.9345360994339,0.873972654342651,0.538323819637299,0.308392494916916,0.099776044487953,0.069264627993107,2.35284233093262
355,0.765209913253784,0.018943263217807,1.05935609340668,-2.44120335578918,6.18217658996582,1.48552966117859,0.873584687709808,0.539117872714996,0.313505500555038,0.013005990535021,0.157574743032455,2.37207961082458
356,0.360303938388824,-0.152156859636307,1.0016998052597,-1.26632249355316,5.47629499435425,1.80169105529785,0.874714970588684,0.539401471614838,0.313239932060242,-0.030507188290358,0.084082148969174,2.39162230491638
357,0.269736438989639,0.001956716645509,1.05812978744507,-0.464713156223297,3.06518411636353,2.1548969745636,0.875150501728058,0.539551436901093,0.313066214323044,-0.048413716256619,0.086907863616943,2.41482138633728
358,0.236473917961121,0.046513091772795,1.01286935806274,-0.984964966773987,3.89693379402161,1.8559981584549,0.876984536647797,0.538956940174103,0.314500153064728,0.011346742510796,-0.027632934972644,2.42717313766479
359,0.000485339172883,-0.119001083076,1.0088632106781,2.44107103347778,2.13677000999451,1.40953683853149,0.87866073846817,0.539003491401672,0.314336001873016,0.025054220110178,-0.112687192857265,2.44282865524292
360,0.54416960477829,-0.139813020825386,1.05544495582581,3.51656770706177,-0.748323023319244,1.55942356586456,0.878863632678986,0.538794696331024,0.314360916614533,0.082545734941959,-0.042475420981646,2.45864295959473
361,0.436104565858841,-0.101025119423866,0.997339248657227,3.93301796913147,1.11500310897827,1.62393033504486,0.880397617816925,0.538642942905426,0.31313893198967,0.14228792488575,-0.103930920362473,2.47376990318298
362,0.085910551249981,-0.118784636259079,1.02702248096466,3.59826898574829,-1.33899676799774,1.27428126335144,0.880373477935791,0.538424015045166,0.313141733407974,0.197058752179146,0.005970928352326,2.48902583122253
363,0.438975304365158,0.030244221910834,1.03180980682373,2.52361965179443,-2.73075675964355,1.34043288230896,0.881120085716248,0.538239359855652,0.313079595565796,0.237672939896584,0.036966979503632,2.50383281707764
364,0.309476107358932,-0.207898274064064,1.0631947517395,-2.21328973770142,0.997035145759582,1.04668998718262,0.881806075572968,0.538213014602661,0.314727157354355,0.231646731495857,0.06760436296463,2.51264047622681
365,0.198030576109886,-0.100533165037632,0.957889199256897,-2.8512921333313,1.65287411212921,0.440823018550873,0.882591068744659,0.538450360298157,0.314811378717422,0.178558811545372,0.067573122680187,2.51890349388123
366,0.339947283267975,-0.093430034816265,0.971838235855102,-6.46111965179443,2.67819976806641,0.262168556451797,0.884401023387909,0.538729012012482,0.314805448055267,0.103765577077866,-0.049438383430243,2.52176308631897
367,0.321038872003555,-0.128283619880676,0.926956176757812,-7.36577033996582,5.74682283401489,0.791780769824982,0.886190950870514,0.539191067218781,0.314725667238235,0.00264797359705,-0.166068017482758,2.52428078651428
368,0.019820353016257,-0.085194177925587,1.01777684688568,-4.01875019073486,2.5609815120697,-0.768300175666809,0.887332916259766,0.538923025131226,0.315129011869431,-0.012554484419525,-0.201554968953133,2.52316617965698
369,0.126764893531799,-0.097897410392761,0.951784491539001,-3.79349398612976,1.33647167682648,-0.189282685518265,0.888349056243897,0.539297223091126,0.31511315703392,-0.090222783386707,-0.220265671610832,2.52030181884766
370,0.515707612037659,0.123270511627197,1.08287537097931,-1.48864436149597,2.28653383255005,0.221918895840645,0.888395667076111,0.539529800415039,0.315222293138504,-0.128111645579338,-0.135202437639236,2.52050685882568
371,0.252819120883942,-0.030841499567032,0.978713810443878,0.903628647327423,-0.363354027271271,-0.547004044055939,0.890032827854157,0.539655864238739,0.316819190979004,-0.127652391791344,-0.18565459549427,2.51918005943298
372,0.208547189831734,-0.21898902952671,1.01334261894226,2.2483172416687,-1.65791749954224,0.061511427164078,0.891554534435272,0.540364027023315,0.316892057657242,-0.162965789437294,-0.220608815550804,2.51650524139404
373,0.35571962594986,-0.269557148218155,0.95784330368042,2.85561037063599,-1.59762465953827,-0.42836782336235,0.892990827560425,0.539564430713654,0.317012250423431,-0.048353005200625,-0.222017243504524,2.51710820198059
374,0.059030186384916,-0.149111643433571,1.02071630954742,3.65749907493591,-3.7737123966217,-0.616512835025787,0.89364504814148,0.539391815662384,0.319522768259048,0.005640596151352,-0.131490632891655,2.51324677467346
375,0.177934020757675,-0.062832914292812,0.966059148311615,1.57562160491943,-3.47505569458008,-0.955243706703186,0.894170761108398,0.539959371089935,0.319830894470215,-0.024614052847028,-0.044321697205305,2.50189185142517
376,0.267486661672592,0.043347470462322,1.04416084289551,0.501757860183716,-0.359828025102615,-1.65825009346008,0.894757211208344,0.539926052093506,0.320135504007339,-0.0072495569475,0.017117315903306,2.48603963851929
377,0.417531549930573,-0.157800033688545,0.981553792953491,-1.24190843105316,-1.01383793354034,-2.21592736244202,0.896263837814331,0.539953887462616,0.320375084877014,-0.00041106090066,-0.016161186620593,2.46957206726074
378,0.330654174089432,-0.026454985141754,0.968793094158173,-4.28557062149048,0.921556711196899,-1.06785869598389,0.89706563949585,0.539387583732605,0.32332780957222,0.020862875506282,0.012507959268987,2.45295190811157
379,0.406696110963821,-0.220991730690002,0.918635308742523,-5.29926538467407,-1.3833167552948,-2.82495617866516,0.899383962154388,0.538246631622314,0.323610991239548,0.082629516720772,-0.093352921307087,2.43379783630371
380,0.508195161819458,0.016170421615243,1.05666840076447,-4.64599990844727,-1.8601952791214,-2.83261919021606,0.899298191070556,0.538590312004089,0.324110925197601,-0.014958773739636,0.026051227003336,2.40565156936645
381,0.251518160104752,-0.130101978778839,1.05915248394012,-8.25516796112061,-0.549373984336853,-2.64529371261597,0.899844884872437,0.53901332616806,0.319680154323578,-0.132622212171555,0.064114831387997,2.38044691085815
382,0.00063113583019,-0.095337547361851,0.789185523986816,-5.53123617172241,-1.45214879512787,-2.70380043983459,0.902228474617004,0.539222478866577,0.319620043039322,-0.185731083154678,-0.018431589007378,2.34919166564941
383,0.083399802446365,0.044963330030441,0.944051146507263,-5.29707288742065,-3.08221912384033,-3.07610464096069,0.902910113334656,0.539643406867981,0.319550275802612,-0.280208051204681,0.036857154220343,2.32127046585083
384,0.061462085694075,0.033288571983576,0.991378128528595,-5.62484645843506,-3.0994234085083,-3.41544985771179,0.902824282646179,0.539235770702362,0.322012513875961,-0.300267547369003,0.168878585100174,2.28820419311523
385,0.077419005334377,0.003422857029364,0.979502558708191,-2.48440265655518,-1.73615646362305,-3.82067918777466,0.903397917747498,0.538835048675537,0.322018176317215,-0.300867676734924,0.228730618953705,2.25074028968811
386,0.015142211690545,-0.029078282415867,1.05883395671844,-1.09651362895966,-2.16172051429749,-3.901775598526,0.904871463775635,0.539876997470856,0.321953237056732,-0.413313746452332,0.192917555570602,2.21310663223267
387,0.320877820253372,-0.039994221180678,0.910725951194763,-0.205572411417961,1.55065155029297,-3.763258934021,0.904826760292053,0.539937436580658,0.321995377540588,-0.421986848115921,0.280362516641617,2.16797232627869
388,0.282092392444611,-0.088429160416126,1.03203463554382,2.91796183586121,1.30088889598846,-5.09413862228394,0.90802264213562,0.540023565292358,0.323275566101074,-0.384809494018555,0.071802519261837,2.12981104850769
389,0.184426262974739,-0.069905027747154,0.977812588214874,2.05318927764893,-0.014874525368214,-4.4339747428894,0.908201158046722,0.539799988269806,0.323355764150619,-0.334024965763092,0.144546449184418,2.07968163490295
390,0.079049378633499,-0.134338408708572,0.957163453102112,2.40642786026001,1.11508131027222,-4.65742158889771,0.909844756126404,0.539765596389771,0.323276072740555,-0.297012805938721,0.085853233933449,2.0361807346344
391,-0.03024535253644,-0.029355430975556,1.00100362300873,1.58817875385284,-2.25734686851501,-4.66369247436523,0.911385178565979,0.539647102355957,0.321673661470413,-0.258373856544495,0.060367703437805,1.99059283733368
392,0.253833025693893,-0.072806499898434,0.943643867969513,1.47200417518616,-1.59540235996246,-4.55279302597046,0.911225855350494,0.54027783870697,0.321635156869888,-0.300260663032532,0.194007739424706,1.93699669837952
393,0.186707526445389,-0.062211640179157,0.980190992355347,0.378442853689194,-1.96494543552399,-4.77085494995117,0.911015033721924,0.540132939815521,0.321557581424713,-0.270458251237869,0.332991302013397,1.88627505302429
394,0.129011049866676,0.013653837144375,1.04749894142151,-1.10407257080078,-2.63803839683533,-4.0793514251709,0.913347542285919,0.540243089199066,0.324253767728806,-0.263897806406021,0.233267247676849,1.84904801845551
395,0.098840422928333,-0.016256865113974,0.924690723419189,-1.76267027854919,-0.459209382534027,-4.53601455688477,0.913204669952393,0.540269374847412,0.324358344078064,-0.271546363830566,0.35454136133194,1.79968178272247
396,0.025917790830135,-0.057602435350418,1.00126445293427,-2.24399209022522,-0.850401401519775,-4.04075479507446,0.915527105331421,0.540504217147827,0.324265986680984,-0.294028788805008,0.238027542829514,1.76548492908478
397,0.068643778562546,0.095958590507507,0.966756820678711,-1.68900036811829,2.15599751472473,-4.66756343841553,0.917883157730102,0.54075014591217,0.325109511613846,-0.30975353717804,0.116265222430229,1.72475290298462
398,0.118998855352402,-0.053608633577824,0.961973488330841,-0.156817734241486,0.530059993267059,-5.84655904769897,0.9195556640625,0.541747212409973,0.325043588876724,-0.390631139278412,0.061699729412794,1.67827570438385
399,0.136655598878861,0.012494243681431,1.04220008850098,1.36633777618408,-0.52262681722641,-5.47709846496582,0.918860375881195,0.540809869766235,0.325274556875229,-0.287782996892929,0.237984344363213,1.61236953735352
400,0.255286902189255,-0.058014165610075,0.972217977046967,4.52661800384522,-1.33363807201386,-6.36873245239258,0.919535040855408,0.540668427944183,0.325324922800064,-0.231967002153397,0.291950941085815,1.54943573474884
401,0.657066702842712,-0.18700946867466,0.949725329875946,3.68445134162903,-3.51542735099792,-5.43911266326904,0.922530055046082,0.541173100471497,0.324024766683578,-0.206568077206612,0.137702152132988,1.50435602664948
402,0.414678186178207,-0.711210131645203,1.04526698589325,2.66746354103088,-4.42164182662964,-7.29058361053467,0.922253489494324,0.540916323661804,0.324095100164413,-0.151308715343475,0.319142729043961,1.43056416511536
403,0.110650427639484,-0.494679182767868,1.06170117855072,0.844016849994659,-4.4016227722168,-6.26012468338013,0.923524260520935,0.540762662887573,0.324058622121811,-0.1099788621068,0.346900463104248,1.36490511894226
404,0.051768083125353,-0.302873313426971,0.914420783519745,0.298119336366653,-3.76400804519653,-6.40786409378052,0.924787282943726,0.540722966194153,0.321253448724747,-0.089347466826439,0.362854182720184,1.30505526065826
405,0.000504417053889,-0.410817205905914,1.01751565933228,-2.31575202941895,-1.57627320289612,-6.04893827438355,0.926132798194885,0.540762066841126,0.321047753095627,-0.098391905426979,0.366888135671616,1.24706649780273
406,-0.005236142314971,-0.013988861814141,1.00557005405426,-1.14930951595306,-0.218626528978348,-6.85548639297485,0.926030397415161,0.541664898395538,0.320978552103043,-0.189119324088097,0.481902956962586,1.177525639534
407,0.141866818070412,-0.117693692445755,0.958117067813873,-1.39945363998413,-0.679112255573273,-5.96212339401245,0.926754593849182,0.541771709918976,0.319841057062149,-0.201864033937454,0.514033734798431,1.11288595199585
408,0.0476014316082,-0.096990153193474,1.03885626792908,0.044206954538822,-0.853793680667877,-4.26437377929688,0.929134607315064,0.541942298412323,0.319535762071609,-0.206148490309715,0.385135531425476,1.06282198429108
409,-0.006102913524956,0.001626243349165,1.08836460113525,-0.150833755731583,0.875541090965271,-6.44814252853394,0.929088771343231,0.541954815387726,0.319443553686142,-0.203244879841804,0.484279870986939,0.999522864818573
410,0.064797967672348,0.023020187392831,0.97922694683075,3.142245054245,2.08819556236267,-6.32379961013794,0.929185688495636,0.541860461235046,0.319376558065414,-0.160948976874352,0.544835805892944,0.932515561580658
411,0.383119463920593,-0.014832571148872,0.993318617343903,2.78355884552002,1.59782207012177,-5.58841514587402,0.93104898929596,0.541695177555084,0.323687732219696,-0.096153073012829,0.441870540380478,0.875452995300293
412,0.253525406122208,0.110009796917439,1.07124531269073,5.09294176101685,3.60340905189514,-5.84543466567993,0.93437135219574,0.543165266513824,0.323639452457428,-0.164690122008324,0.190058305859566,0.831920862197876
413,-0.01443702261895,0.000902280618902,1.04750275611877,3.07766151428223,2.00480508804321,-6.31361055374146,0.93465268611908,0.542807817459106,0.323915481567383,-0.075827091932297,0.24089689552784,0.766802430152893
414,-0.007139425259084,-0.052692499011755,0.9399174451828,4.42761611938477,-1.70337569713593,-5.87709617614746,0.934725701808929,0.543363511562347,0.32420551776886,-0.075552709400654,0.329788714647293,0.704122960567474
415,0.085494935512543,-0.043878555297852,0.924189567565918,2.11914849281311,-3.92570996284485,-5.02820777893066,0.934532999992371,0.543903410434723,0.324434161186218,-0.080148920416832,0.463233858346939,0.648513197898865
416,0.020684532821179,0.062604509294033,1.0902738571167,2.01506328582764,-4.15446424484253,-5.40485763549805,0.935826897621155,0.543727934360504,0.324555516242981,-0.019489839673042,0.459619462490082,0.593226671218872
417,0.306527346372604,0.049224033951759,0.999286353588104,3.0885534286499,-4.2808141708374,-5.33589601516724,0.937911450862884,0.544466495513916,0.326530545949936,-0.040015909820795,0.392447799444199,0.544063687324524
418,0.400258809328079,-0.005630556028336,0.968556821346283,3.25340962409973,-1.75410544872284,-5.42143154144287,0.937587797641754,0.545009851455689,0.326896041631699,-0.037586029618979,0.538394749164581,0.485383152961731
419,0.117924973368645,-0.097195982933045,0.959232032299041,1.52462804317474,-1.84245729446411,-5.41478538513184,0.93743771314621,0.544751107692719,0.327205628156662,0.02981773018837,0.645093441009522,0.426879346370697
420,0.104447402060032,-0.169659584760666,1.01216745376587,3.23890352249145,0.157139927148819,-5.5144362449646,0.93891704082489,0.544630527496338,0.327402651309967,0.08505941927433,0.581283032894135,0.370685636997223
421,0.028526436537504,-0.039592754095793,1.02839946746826,2.42019176483154,1.98330426216126,-5.97004842758179,0.940529048442841,0.544358193874359,0.324088305234909,0.155903533101082,0.489569634199142,0.310043632984161
422,-0.028233248740435,-0.016157085075975,1.06899809837341,-2.06422281265259,4.95560884475708,-6.07023525238037,0.942274510860443,0.545005798339844,0.324088245630264,0.123490735888481,0.375083535909653,0.256848096847534
423,0.06623287498951,0.052047800272703,1.07997906208038,2.41610240936279,3.93281221389771,-5.77819204330444,0.94254344701767,0.545788943767548,0.324281364679337,0.094475723803043,0.393799006938934,0.201413094997406
424,-0.020303353667259,-0.068306162953377,0.953084766864777,2.46330189704895,5.4259786605835,-5.31586265563965,0.943664133548737,0.545638144016266,0.326173663139343,0.152309894561768,0.329355031251907,0.144891977310181
425,0.096791416406632,0.058091819286347,0.972277045249939,0.528071284294128,3.62065267562866,-5.90051698684692,0.944790899753571,0.545431017875671,0.326445758342743,0.204675003886223,0.2679682970047,0.083962045609951
426,0.055616360157728,-0.18037411570549,1.01570963859558,1.20768928527832,3.08297634124756,-4.76426362991333,0.94499409198761,0.545424401760101,0.326783031225205,0.227047294378281,0.30614447593689,0.0320137552917
427,0.041249390691519,-0.077091507613659,1.02717709541321,0.600510060787201,0.796732068061829,-5.68452882766724,0.945950150489807,0.54528933763504,0.325356930494309,0.264312982559204,0.278503447771072,-0.020771296694875
428,0.022180967032909,0.082516454160214,1.02197313308716,-1.22890877723694,1.08927261829376,-4.79913139343262,0.946753859519958,0.545316219329834,0.325553834438324,0.264059841632843,0.279296100139618,-0.072902470827103
429,0.053611632436514,-0.01627616211772,0.96806138753891,-1.1641982793808,0.759200096130371,-5.37555456161499,0.946812450885773,0.545397460460663,0.325807899236679,0.25992625951767,0.344032019376755,-0.122384682297707
430,0.213198512792587,0.093593887984753,0.988755226135254,0.240032657980919,1.13957297801971,-5.13104772567749,0.947606146335602,0.546299338340759,0.325276702642441,0.183174923062324,0.337167024612427,-0.171678200364113
431,0.127694681286812,-0.153930187225342,0.918745040893555,-1.30361211299896,2.74198627471924,-5.28399133682251,0.947754323482513,0.546304285526276,0.325416922569275,0.194779947400093,0.373144537210464,-0.221084758639336
432,0.083667792379856,-0.016099167987704,0.968196332454681,-0.984046697616577,4.1019811630249,-4.77332878112793,0.948747813701629,0.546390175819397,0.325462281703949,0.188207358121872,0.315361946821213,-0.270807325839996
433,0.003561336547136,-0.015562267974019,0.950626730918884,0.016729800030589,4.92252635955811,-4.6606593132019,0.950693309307098,0.546418070793152,0.325410842895508,0.19008019566536,0.158341005444527,-0.321633815765381
434,0.025825681164861,-0.024309847503901,0.973492324352264,-0.080287903547287,6.25307750701904,-4.09669733047485,0.951068460941315,0.546407818794251,0.325651079416275,0.205063924193382,0.148230507969856,-0.363032072782516
435,0.009868522174656,0.018013283610344,0.991946697235107,0.87410694360733,3.82688903808594,-3.9803159236908,0.951463103294373,0.547224342823029,0.325661182403564,0.149371325969696,0.137794926762581,-0.398742467164993
436,0.132694646716118,0.019659362733364,1.03743600845337,3.22058653831482,3.91828894615173,-3.6347508430481,0.953372001647949,0.54626601934433,0.325577974319458,0.271596848964691,-0.00822229962796,-0.447155684232712
437,0.109866082668304,-0.018940119072795,0.973437964916229,2.99343037605286,4.05716943740845,-2.6472225189209,0.953716039657593,0.547740697860718,0.325399696826935,0.17629486322403,0.010960531421006,-0.475241541862488
438,0.063978657126427,-0.081682942807675,0.966861605644226,2.16968655586243,-1.34942543506622,-3.03369688987732,0.955794632434845,0.547447204589844,0.325260192155838,0.240298718214035,-0.129353806376457,-0.507718741893768
439,-0.020477764308453,-0.126326903700829,1.03264033794403,2.18847608566284,-1.2220983505249,-2.6255190372467,0.955639004707336,0.547376215457916,0.325320571660995,0.278628677129745,-0.008647221140563,-0.532650411128998
440,0.108097568154335,-0.059050563722849,0.975692927837372,1.55214178562164,-5.92476844787598,-3.00155854225159,0.955709636211395,0.548932135105133,0.327771335840225,0.159039616584778,0.09464056789875,-0.55450975894928
441,0.170622438192368,-0.061319012194872,0.983253240585327,0.237806707620621,-5.95881462097168,-2.45703101158142,0.956054866313934,0.548819601535797,0.327932834625244,0.201665535569191,0.189421027898788,-0.580871403217316
442,0.153189912438393,-0.185105308890343,1.00771939754486,1.35846865177155,-2.92766070365906,-2.56872010231018,0.958913445472717,0.548693478107452,0.327950149774551,0.233374953269958,0.021060764789581,-0.616302847862244
443,0.430681616067886,-0.181080013513565,0.97205239534378,2.54518580436707,-1.44903695583344,-2.29398155212402,0.957931697368622,0.549378931522369,0.328225910663605,0.219529300928116,0.214924365282059,-0.632399916648865
444,0.213581010699272,-0.527249753475189,1.02052879333496,0.428365230560303,0.943390369415283,-2.59904432296753,0.958638608455658,0.549217879772186,0.326030910015106,0.268628537654877,0.205940797924995,-0.656483113765717
445,-0.015307253226638,-0.241859316825867,1.03618979454041,0.538740694522858,2.96650099754333,-2.70853090286255,0.962012112140656,0.549012899398804,0.325872182846069,0.305583387613296,-0.080481290817261,-0.695012032985687
446,0.022149089723826,0.076971732079983,1.02332210540771,0.541569113731384,4.97355079650879,-2.84698081016541,0.963008940219879,0.548952460289001,0.325859516859055,0.329745978116989,-0.1262496560812,-0.721084475517273
447,-0.021313278004527,-0.118754111230373,0.95503968000412,0.669297099113464,4.79891157150269,-3.20584893226624,0.963337779045105,0.548872411251068,0.326311379671097,0.365434855222702,-0.112373843789101,-0.745660603046417
448,-0.046562965959311,0.193456798791885,0.90192973613739,-0.206006437540054,1.78866350650787,-2.59545207023621,0.963676810264587,0.548671424388886,0.32631641626358,0.40942257642746,-0.092961609363556,-0.765577256679535
449,0.057170744985342,0.040663760155439,0.978049516677856,-0.942665338516235,-0.680970072746277,-2.30776596069336,0.963790833950043,0.548747599124908,0.326270759105682,0.400230407714844,-0.024481743574143,-0.785827875137329
450,0.013547867536545,-0.08755423873663,0.938848853111267,-3.1298987865448,-2.45724773406982,-1.80159330368042,0.964547753334045,0.548876166343689,0.326368987560272,0.366605401039124,-0.007853131741285,-0.803940117359161
451,0.070023581385613,-0.038117669522762,0.9965780377388,-2.31892704963684,-3.07442235946655,-1.71654498577118,0.966839075088501,0.548214197158814,0.326080769300461,0.408735245466232,-0.133770272135735,-0.826310694217682
452,-0.025059027597308,-0.215960934758186,0.834716975688934,-3.17964744567871,-3.39755010604858,-1.66123938560486,0.966765463352203,0.548189759254456,0.32587456703186,0.400341093540192,-0.015524108894169,-0.83187198638916
453,0.015708057209849,-0.010839397087693,0.965677082538605,-4.33001756668091,-0.172241061925888,-1.1145988702774,0.967415750026703,0.5484938621521,0.325495034456253,0.321477919816971,0.019057909026742,-0.844751119613647
454,0.050625771284103,0.101603917777538,1.03201186656952,-4.45220708847046,0.947284936904907,-1.43913006782532,0.969124853610992,0.54877769947052,0.325954437255859,0.242274299263954,-0.077614389359951,-0.865487396717072
455,0.44387874007225,-0.122106939554214,0.99740082025528,-4.33446073532105,2.56527853012085,-0.763838350772858,0.96926087141037,0.549093306064606,0.325682044029236,0.174426704645157,-0.017855376005173,-0.871562778949737
456,0.446824312210083,-0.046689581125975,1.01399850845337,-3.32754015922546,3.53989958763123,-0.942137718200684,0.969438970088959,0.549424171447754,0.325407832860947,0.114750184118748,0.021000102162361,-0.875078320503235
457,0.106038637459278,-0.032183222472668,0.935382664203644,-0.71872490644455,3.05152726173401,-1.10461187362671,0.970520496368408,0.549526751041412,0.324905574321747,0.095334403216839,-0.03895465284586,-0.887846112251282
458,-0.026270115748048,-0.046716652810574,0.999356746673584,1.07980573177338,3.86829733848572,-0.319689691066742,0.971516370773315,0.549521386623383,0.324505925178528,0.109233558177948,-0.094926454126835,-0.892882287502289
459,0.464683532714844,0.030733987689018,1.07576775550842,3.49852585792541,4.08376979827881,0.062713742256165,0.972553074359894,0.549293220043182,0.324128240346909,0.16807909309864,-0.151129141449928,-0.893274426460266
460,0.256986856460571,0.044932398945093,1.04036235809326,2.47872495651245,2.39369416236877,-0.080795280635357,0.972886204719543,0.549128711223602,0.328237622976303,0.217161640524864,-0.123849295079708,-0.889351725578308
461,-0.007192787248641,-0.315715283155441,0.963652193546295,2.9516224861145,2.86557364463806,0.070570625364781,0.973836839199066,0.548823595046997,0.32817080616951,0.280956953763962,-0.167053118348122,-0.888758420944214
462,0.17409148812294,-0.308924078941345,1.01801824569702,0.669945061206818,1.89450883865356,-0.04598380625248,0.973983824253082,0.54870992898941,0.32814946770668,0.308017075061798,-0.124461263418198,-0.884153187274933
463,0.043843001127243,-0.046724479645491,1.0168399810791,0.867363572120667,1.98138856887817,0.279044061899185,0.976492702960968,0.548527777194977,0.325246721506119,0.324299246072769,-0.330072969198227,-0.890245199203491
464,0.054268464446068,-0.004023242276162,1.03206956386566,-2.00645327568054,1.18198001384735,0.199912369251251,0.976586520671844,0.547815203666687,0.325107306241989,0.385134398937225,-0.268881440162659,-0.879622042179108
465,0.032428197562695,0.069304972887039,1.06399774551392,-3.09204578399658,1.25192737579346,-0.085661686956883,0.976738333702087,0.547968983650208,0.325014144182205,0.330032587051392,-0.212524682283401,-0.878168880939483
466,0.192837759852409,0.097755663096905,0.963631093502045,-5.33244752883911,-0.207611113786697,0.487784653902054,0.977604150772095,0.54752242565155,0.32486429810524,0.313631236553192,-0.228560790419578,-0.874089777469635
467,0.134968459606171,-0.196788087487221,0.98164975643158,-5.95632410049439,1.06168735027313,0.96406751871109,0.978477001190186,0.547879993915558,0.325104385614395,0.201315641403198,-0.24007086455822,-0.870944738388062
468,0.062239900231361,-0.076557599008083,0.986653029918671,-5.47535181045532,-0.229543641209602,0.453899413347244,0.980120778083801,0.547489762306213,0.324900299310684,0.168826758861542,-0.325788706541061,-0.86834317445755
469,0.010473588481546,-0.028982659801841,0.996475994586945,-4.63372611999512,1.31056940555573,0.477424740791321,0.981044471263886,0.547853529453278,0.324751973152161,0.065883778035641,-0.335625201463699,-0.867421388626099
470,0.088074155151844,-0.027937902137637,1.08236467838287,-1.49735736846924,-0.047217544168234,-0.094449929893017,0.981059193611145,0.548144817352295,0.322415858507156,0.009461740963161,-0.256813824176788,-0.864466726779938
471,0.128447115421295,0.016498360782862,1.04136800765991,1.15433192253113,0.953516960144043,0.537114560604095,0.981899976730347,0.548195242881775,0.322217494249344,0.000724642944988,-0.260197788476944,-0.86049085855484
472,0.070562869310379,-0.018071489408612,0.926628708839416,2.50095057487488,1.46530914306641,-0.122111655771732,0.985876798629761,0.546461641788483,0.321799635887146,0.186101451516151,-0.583924233913422,-0.858263373374939
473,-0.005662828683853,-0.108744010329247,0.983371257781982,1.67057549953461,-0.220942139625549,0.308441787958145,0.985879898071289,0.546388566493988,0.320465862751007,0.194212257862091,-0.472881197929382,-0.853033363819122
474,0.006267909426242,-0.008303839713335,1.02879512310028,1.27795124053955,-1.15595400333405,0.041796870529652,0.984990239143372,0.547064960002899,0.320356369018555,0.125563874840736,-0.269519329071045,-0.853935420513153
475,0.22832715511322,-0.077250435948372,1.04069828987122,-1.54231786727905,-2.41979598999023,0.420923113822937,0.984805583953857,0.547054946422577,0.320160955190659,0.112350948154926,-0.140158101916313,-0.849581897258758
476,0.173626810312271,-0.053263820707798,1.06250381469727,-0.618510842323303,-2.01598978042603,-0.445200383663178,0.988521635532379,0.546938180923462,0.319773286581039,0.098547250032425,-0.410345107316971,-0.858690798282623
477,0.05120213329792,0.00430307816714,0.976299405097961,-2.24089121818542,-0.920737206935883,0.348376601934433,0.987651228904724,0.546968340873718,0.32048773765564,0.077324643731117,-0.211445868015289,-0.854976117610931
478,0.204386845231056,-0.386723518371582,0.968584299087524,-2.38539099693298,-0.463929802179337,0.13666807115078,0.988352239131928,0.547122001647949,0.320313900709152,0.023083869367838,-0.19264680147171,-0.854055643081665
479,0.066325016319752,-0.215362206101418,1.00344741344452,-3.21122860908508,-0.051127828657627,0.162946492433548,0.989929556846619,0.547258853912354,0.320062279701233,-0.030240470543504,-0.26706475019455,-0.857238233089447
480,0.076998084783554,-0.123987726867199,1.02643656730652,-1.85935580730438,1.35724413394928,-0.284487396478653,0.993144512176514,0.547390699386597,0.321028709411621,-0.084255769848824,-0.497493118047714,-0.864169955253601
481,0.164305508136749,0.020624814555049,1.0745964050293,0.056715629994869,1.21794092655182,-0.311074763536453,0.992570757865906,0.547473073005676,0.321132093667984,-0.094547063112259,-0.350334167480469,-0.865482747554779
482,0.162928357720375,-0.051176387816668,1.01973366737366,1.79363870620728,0.717347800731659,0.043679814785719,0.993416130542755,0.547457635402679,0.321107745170593,-0.086698651313782,-0.343673229217529,-0.866419315338135
483,0.030293347314,-0.204134032130241,0.959261238574982,3.94098901748657,-1.03418493270874,-0.002151911845431,0.993466675281525,0.546550810337067,0.321121037006378,0.043356776237488,-0.250775367021561,-0.8579421043396
484,0.109333842992783,-0.064995333552361,0.939516305923462,4.36279010772705,-1.3337482213974,0.042600471526384,0.995731711387634,0.546276926994324,0.320975482463837,0.097426258027554,-0.366063505411148,-0.85508394241333
485,0.060985486954451,0.042062893509865,1.08727121353149,1.83469653129578,-1.28304743766785,-0.128533989191055,0.996449112892151,0.546785771846771,0.320954591035843,0.059441231191158,-0.318848043680191,-0.863046824932098
486,0.175709038972855,0.047234080731869,1.02711296081543,2.36370372772217,-1.67459011077881,0.23691438138485,0.997114539146423,0.546679377555847,0.320968836545944,0.08253413438797,-0.260945707559586,-0.862347841262817
487,0.236533582210541,0.022635826840997,0.978926181793213,0.738426804542542,-0.612431526184082,-0.281059950590134,0.998440861701965,0.546550393104553,0.317774087190628,0.105990536510944,-0.284795165061951,-0.859871745109558
488,0.057588368654251,-0.029623242095113,0.96916925907135,-0.413798987865448,-1.2527984380722,0.611616611480713,0.999136686325073,0.547192275524139,0.317614257335663,0.033389005810022,-0.232130721211433,-0.864094078540802
489,-0.017745131626725,-0.072876654565334,0.971732079982758,-0.525613963603973,-2.50339818000793,0.666625320911408,0.999758720397949,0.547279417514801,0.317430645227432,0.017062095925212,-0.172876060009003,-0.855393528938293
490,0.067116722464562,-0.115915283560753,0.999996185302734,-0.572278559207916,-1.83868408203125,0.949870944023132,1.00031673908234,0.547323882579803,0.315035313367844,0.007441623136401,-0.117678113281727,-0.848468661308289
491,-0.015430317260325,-0.192803785204887,1.06658506393433,0.213208898901939,-2.45219898223877,0.778841614723206,1.00095164775848,0.547347962856293,0.314728111028671,0.006452870089561,-0.068429999053478,-0.839921236038208
492,-0.045194186270237,-0.04559613019228,1.07455861568451,1.01327180862427,0.602836012840271,0.889520406723022,1.00321793556213,0.548087418079376,0.314356207847595,-0.065511032938957,-0.196234837174416,-0.836800396442413
493,0.089320555329323,0.082130268216133,1.0004448890686,3.0407133102417,0.491065919399262,1.37585198879242,1.00401568412781,0.548000991344452,0.313012361526489,-0.028453588485718,-0.18842513859272,-0.822063565254211
494,0.028580704703927,-0.075692094862461,0.95453155040741,3.42179751396179,1.04880082607269,1.66253674030304,1.00482225418091,0.547747075557709,0.312723487615585,0.038767367601395,-0.179935589432716,-0.804760932922363
495,0.000647259585094,-0.072868533432484,0.960390150547028,2.89795684814453,1.28145253658295,1.8672194480896,1.00568926334381,0.547558665275574,0.312394022941589,0.087751343846321,-0.183625519275665,-0.785293221473694
496,0.051765203475952,0.119244158267975,1.09788465499878,5.12437200546265,0.133391931653023,1.66741585731506,1.00579583644867,0.547228991985321,0.314114302396774,0.172676533460617,-0.102184645831585,-0.769055187702179
497,0.037244152277708,0.093151219189167,1.03919863700867,2.89717054367065,1.48850083351135,2.04205393791199,1.00731229782105,0.546943306922913,0.313919216394424,0.231527149677277,-0.170134648680687,-0.748987376689911
498,0.128297626972198,-0.119485750794411,0.965660750865936,1.25498509407043,2.22616839408875,2.8196108341217,1.00746273994446,0.546760976314545,0.313847690820694,0.261365085840225,-0.12096831202507,-0.722415804862976
499,0.140635579824448,-0.18772503733635,0.986911833286285,-0.500881433486939,1.34074819087982,3.06254053115845,1.00908195972443,0.546737730503082,0.313641279935837,0.252568274736404,-0.201907977461815,-0.693588674068451
500,0.031749699264765,-0.160740271210671,1.08756279945374,-0.654921174049377,0.258661419153213,2.69506788253784,1.01073324680328,0.545946359634399,0.314938724040985,0.325146466493607,-0.267727434635162,-0.658468008041382
501,-0.005084704607725,-0.14230814576149,1.03056216239929,-2.41044235229492,0.257885307073593,2.38657832145691,1.01227605342865,0.546007513999939,0.314906448125839,0.281364142894745,-0.31780543923378,-0.632996201515198
502,0.059890322387219,-0.211790934205055,0.996928155422211,-3.00620484352112,-0.921570658683777,2.38945889472961,1.01234817504883,0.54619038105011,0.31506872177124,0.224729508161545,-0.213120654225349,-0.607933759689331
503,0.084341116249561,-0.193973898887634,0.991832435131073,-3.16488671302795,-2.46359729766846,3.28537344932556,1.01378738880157,0.545616149902344,0.316366583108902,0.238646015524864,-0.225124061107635,-0.576833665370941
504,0.038666758686304,-0.022998511791229,1.02379405498505,-2.92214798927307,-3.05770230293274,3.5465624332428,1.01515817642212,0.545791447162628,0.31644344329834,0.175075948238373,-0.222498521208763,-0.541936337947845
505,-0.009989120066166,0.071931101381779,1.07606470584869,-3.06589126586914,-4.58858108520508,3.35125970840454,1.01494073867798,0.545956909656525,0.316730350255966,0.121580213308334,-0.05261791869998,-0.508143246173859
506,0.001415937091224,-0.133118703961372,0.970548689365387,-2.14286518096924,-4.33562755584717,3.15002703666687,1.01761734485626,0.54608553647995,0.315600663423538,0.072347059845924,-0.168387517333031,-0.479982227087021
507,0.086580656468868,-0.057736188173294,0.961008191108704,-1.58738422393799,-3.19862365722656,3.17512941360474,1.0173853635788,0.54625654220581,0.315834552049637,0.032285291701555,-0.004067710600793,-0.448285311460495
508,0.116360135376453,-0.558727502822876,1.11223471164703,0.94234299659729,-2.42717361450195,2.7291202545166,1.01869785785675,0.546292185783386,0.315929621458054,0.023538690060377,-0.00342255900614,-0.421332806348801
509,0.086724646389484,-0.165270313620567,1.04617750644684,0.330953031778336,-0.885268092155456,3.34031271934509,1.02087438106537,0.546214938163757,0.316000819206238,0.030558228492737,-0.096333719789982,-0.391629964113235
510,0.066519267857075,0.122345395386219,1.00771081447601,2.84679627418518,0.977047264575958,2.47607493400574,1.02241706848145,0.546191275119782,0.31687319278717,0.043841019272804,-0.131772264838219,-0.36463263630867
511,0.006054839119315,0.009481966495514,0.955142974853516,0.907983243465424,-0.033547434955835,2.81800103187561,1.02251827716827,0.545961141586304,0.317210614681244,0.084601879119873,-0.034965474158526,-0.33723047375679
512,0.117904402315617,0.1064867451787,1.00431716442108,0.904942214488983,1.14949858188629,1.8737450838089,1.02411448955536,0.545923113822937,0.317358464002609,0.089476324617863,-0.089499428868294,-0.316831290721893
513,0.036164823919535,-0.141484901309013,1.00372159481049,0.03249691426754,-1.15590584278107,2.17887282371521,1.0242372751236,0.545202553272247,0.318523943424225,0.150037735700607,0.007620833348483,-0.293640792369843
514,0.068866468966007,0.042802203446627,1.05709457397461,-0.117835737764835,-0.339459717273712,2.23705673217773,1.02498590946198,0.545261442661285,0.318791478872299,0.130455434322357,0.041471485048533,-0.273304253816605
515,-0.05925177410245,-0.105835996568203,1.03168129920959,-3.27992010116577,-0.542018949985504,2.47710609436035,1.02729845046997,0.545307397842407,0.31896960735321,0.092467561364174,-0.070602782070637,-0.249202102422714
516,0.070954948663712,0.022604702040553,0.938369333744049,-1.27610111236572,0.393193751573563,1.98536145687103,1.02818667888641,0.544755101203918,0.320947855710983,0.113231174647808,-0.041310720145702,-0.228081345558166
517,-0.000711778178811,-0.087219603359699,0.961118996143341,-4.11874771118164,0.318250149488449,1.91769933700562,1.02978694438934,0.544845223426819,0.321236580610275,0.063341960310936,-0.083840847015381,-0.207508191466331
518,0.244027510285377,-0.641790986061096,0.968947052955627,-3.48746609687805,0.81004410982132,2.32723307609558,1.0306476354599,0.545094549655914,0.321572452783585,-0.004674074240029,-0.058594662696123,-0.186504170298576
519,0.203915432095528,-0.520550608634949,1.00173723697662,-3.54885172843933,-0.214540719985962,2.09779906272888,1.03219664096832,0.544606924057007,0.321820080280304,-0.003460122272372,-0.08601426333189,-0.16173954308033
520,0.054867558181286,0.047770813107491,1.0171891450882,-4.40616846084595,-1.20401585102081,2.58679723739624,1.03207409381866,0.544081568717957,0.318690836429596,-0.006226460915059,0.036940947175026,-0.137678533792496
521,0.028166253119707,0.105396099388599,1.02046811580658,-2.18686008453369,-1.65501761436462,2.17800259590149,1.03272533416748,0.544412851333618,0.318856507539749,-0.081524670124054,0.094338670372963,-0.114589653909206
522,0.082472801208496,0.076552793383598,0.985659658908844,-2.7209746837616,-1.21927547454834,2.23690509796143,1.03336024284363,0.544601559638977,0.31901615858078,-0.13772439956665,0.147212937474251,-0.09175768494606
523,0.310913443565369,-0.478851824998856,0.982193410396576,0.364632427692413,0.594853937625885,1.96175825595856,1.03484892845154,0.543914556503296,0.319104135036468,-0.083299569785595,0.104320861399174,-0.070067167282105
524,0.162589311599731,-0.173019498586655,0.940621316432953,1.15915608406067,0.976789772510529,2.8039710521698,1.0363872051239,0.544651925563812,0.319155007600784,-0.150863245129585,0.056930925697088,-0.044194161891937
525,0.043714471161366,-0.174232468008995,0.95510721206665,1.51613450050354,0.107127778232098,1.57151412963867,1.03875637054443,0.544530749320984,0.319078713655472,-0.125580057501793,-0.064298860728741,-0.023550540208817
526,0.065550036728382,-0.021198665723205,0.971937417984009,1.13058042526245,-1.10035359859467,1.93888676166534,1.03944575786591,0.544473528862,0.31876465678215,-0.122365526854992,-0.012744222767651,-0.004081484396011
527,0.314592182636261,-0.172249808907509,1.18402659893036,1.40756547451019,-3.7339141368866,1.32660150527954,1.03864073753357,0.544708132743835,0.319009572267532,-0.161554917693138,0.176775813102722,0.007021791767329
528,0.17812879383564,-0.534713506698608,1.09380280971527,3.02922201156616,-1.82984399795532,1.59427297115326,1.03917038440704,0.544550061225891,0.319241732358932,-0.127579584717751,0.229891642928123,0.022201407700777
529,-0.050413120537996,-0.579893827438355,1.00935184955597,1.5029673576355,-0.745316922664642,2.14407229423523,1.04070568084717,0.544327080249786,0.320689767599106,-0.09033539891243,0.176590844988823,0.042142495512962
530,0.020614948123694,-0.000752421969082,0.932950615882874,1.36211121082306,2.25517416000366,1.42087352275848,1.04298973083496,0.544222056865692,0.320938348770142,-0.069758556783199,0.039405263960362,0.0612324886024
531,0.051284734159708,0.047196600586176,0.982009530067444,-0.241959914565086,1.86326682567596,1.71419894695282,1.04555010795593,0.544281482696533,0.32107475399971,-0.081673458218575,-0.119624555110931,0.083268836140633
532,0.055033892393112,0.035258483141661,0.938091516494751,-0.624711394309998,2.13004899024963,1.78016400337219,1.04728949069977,0.542662799358368,0.321220904588699,0.057513877749443,-0.184972926974297,0.098124273121357
533,0.022225916385651,0.036779068410397,1.03694903850555,-0.69322121143341,-1.48858797550201,1.03427219390869,1.04751300811768,0.542750537395477,0.325373381376266,0.018232567235828,-0.072415739297867,0.108891904354095
534,0.023213781416416,0.007105784025043,1.00254380702972,-2.48362302780151,-3.67245244979858,1.95378303527832,1.04975616931915,0.542815089225769,0.325683355331421,-0.014460441656411,-0.131143778562546,0.128383368253708
535,-0.06296493858099,-0.142376199364662,0.973096907138824,-3.67666721343994,-5.82494926452637,0.791833221912384,1.04950416088104,0.543065667152405,0.326312810182571,-0.089843668043614,0.068709865212441,0.137297540903091
536,0.050669480115175,-0.171765774488449,1.03517591953278,-4.02109956741333,-8.24034595489502,0.788027226924896,1.05051219463348,0.543368875980377,0.323183715343475,-0.162342593073845,0.159754782915115,0.146948471665382
537,0.036066126078367,-0.178923681378365,0.944812536239624,-1.82896947860718,-7.02035474777222,-0.27869924902916,1.04993724822998,0.54349958896637,0.323532909154892,-0.200104370713234,0.392403990030289,0.142264232039452
538,0.054239738732576,-0.181554466485977,0.939188539981842,-1.35983300209045,-2.99654722213745,0.03342803940177,1.05183565616608,0.543623089790344,0.323661088943481,-0.225235715508461,0.358327955007553,0.145108938217163
539,0.076231852173805,-0.197362467646599,0.895569801330566,0.58775806427002,-1.51139438152313,-0.224283427000046,1.05146706104279,0.541218936443329,0.317492604255676,-0.020638067275286,0.489063620567322,0.129767715930939
540,0.04146483540535,0.037191465497017,1.00197947025299,-0.706015408039093,4.20557832717896,-0.453819930553436,1.05296289920807,0.542052507400513,0.31719234585762,-0.118828862905502,0.404152870178223,0.131765067577362
541,-0.007116859313101,0.003392687067389,0.94308739900589,-4.0221848487854,7.14130210876465,-0.585777580738068,1.05495274066925,0.541470885276794,0.316765457391739,-0.121820420026779,0.231919467449188,0.125832334160805
542,-0.048127938061953,-0.002997763454914,0.986975729465485,-3.40744566917419,11.3434886932373,-0.951748549938202,1.05473554134369,0.541759550571442,0.316517114639282,-0.202517300844192,0.238864317536354,0.115212067961693
543,0.264759182929993,0.087320752441883,1.01976072788239,-5.18466663360596,10.5148344039917,-0.693959593772888,1.05547738075256,0.542133331298828,0.31521725654602,-0.297311305999756,0.143828734755516,0.111577406525612
544,0.342799991369247,-0.007490918040276,1.04006671905518,-4.13882207870483,11.5790786743164,-0.373988121747971,1.05872225761414,0.542627453804016,0.314605176448822,-0.385519802570343,-0.181619301438332,0.117092676460743
545,0.204953983426094,0.082509547472,0.971766293048858,-0.822245061397553,6.32931470870972,0.015915755182505,1.05778074264526,0.54282820224762,0.314466804265976,-0.430441647768021,-0.064515329897404,0.112013749778271
546,0.011101487092674,0.026456210762262,0.985862791538238,1.46339726448059,0.728804111480713,0.432552605867386,1.05890202522278,0.542827427387237,0.313495218753815,-0.419503390789032,-0.102019675076008,0.11642500013113
547,0.136024639010429,0.007945622317493,0.943228304386139,3.75291180610657,-2.31940984725952,0.554516971111298,1.06037211418152,0.541075527667999,0.312995910644531,-0.230686902999878,-0.126668348908424,0.119165010750294
