,acc.x,acc.y,acc.z,gyro.x,gyro.y,gyro.z,stateEstimate.x,stateEstimate.y,stateEstimate.z,stabilizer.pitch,stabilizer.roll,stabilizer.yaw
0,-0.027027569711207993,0.16401548683643302,1.14252376556396,-44.056331634521506,-32.9479484558105,2.6885862350463903,1.80324590206146,-0.5657420158386229,0.31219580769538896,2.78174686431885,0.063879668712616,-1.77091908454895
1,-0.091571316123009,0.10280691832304,1.03961658477783,-34.480945587158196,-32.765510559081996,2.9751734733581503,1.80397951602936,-0.566627562046051,0.312029331922531,2.91018891334534,0.063324630260468,-1.7017927169799798
2,0.49605190753936795,0.04349622502923001,1.0562938451766999,-18.2989826202393,-21.309162139892603,2.58661270141602,1.8023982048034701,-0.574044942855835,0.31184035539627103,2.6461386680602996,0.49251717329025296,-1.96989715099335
3,1.28465211391449,-0.18520024418830897,0.988142848014832,1.99240469932556,-6.60453081130981,2.15092611312866,1.8028059005737298,-0.576506078243256,0.308590233325958,2.4120512008667,0.847113072872162,-1.99923741817474
4,0.388050705194473,-0.04579120501875901,1.0198562145233199,19.745098114013697,6.0868024826049805,0.867893517017365,1.80245518684387,-0.5796974301338199,0.308348387479782,2.13205647468567,1.3001613616943402,-2.0169923305511497
5,0.176651313900948,-0.103738635778427,1.18134772777557,33.776153564453104,18.680002212524396,1.45602738857269,1.80472207069397,-0.579915285110474,0.30849584937095603,1.63146352767944,1.5310674905776998,-1.9043993949890101
6,-0.033361848443747,0.000859384366777,1.0703581571579,38.3959083557129,31.4189147949219,2.5975537300109903,1.8063051700591999,-0.581767737865448,0.30818068981170693,1.00502562522888,1.6941276788711501,-1.85765957832336
7,0.16400834918022197,-0.052572172135114996,1.01642346382141,34.483043670654304,43.3117752075195,3.7489011287689196,1.80774080753326,-0.5814993381500239,0.308399498462677,0.587313890457153,1.62885403633118,-1.66228795051575
8,0.113023318350315,-0.295942008495331,0.9671049714088441,19.4249286651611,51.7396240234375,4.910408973693849,1.80875718593597,-0.5819551944732672,0.308608025312424,0.24684052169323,1.3974832296371498,-1.4924803972244298
9,-0.082020655274391,-0.36218273639679,1.07179915904999,1.9894919395446797,52.89314270019529,7.1561994552612305,1.80889582633972,-0.583252310752869,0.308856338262558,0.11080934107303599,1.08043324947357,-1.35422301292419
10,-0.027733478695154,-0.270978540182114,1.05905520915985,-19.0079383850098,41.3068237304688,9.08391380310059,1.81056177616119,-0.582161068916321,0.310037434101105,0.16612082719802898,0.553442060947418,-1.13299238681793
11,0.19625057280063604,-0.148350805044174,1.10677695274353,-32.028347015380895,23.7167148590088,9.44518280029297,1.80775535106659,-0.587389051914215,0.31008753180503806,0.508387207984924,0.35630491375923207,-1.15247559547424
12,-0.048077236860990996,0.020814552903175,1.01381742954254,-39.3781127929687,2.80404162406921,9.04343223571777,1.81021511554718,-0.584825575351715,0.310522437095642,0.880090296268463,-0.299602925777435,-0.881929099559784
13,-0.17524249851703602,0.026137705892325003,0.874568402767181,-42.26719284057621,-19.3598346710205,8.18314361572266,1.8089570999145501,-0.5901252031326291,0.311532109975815,1.20775806903839,-0.481172442436218,-0.899965405464172
14,-0.146773934364319,-0.125976875424385,0.815993785858154,-41.081382751464794,-34.113517761230504,10.2530956268311,1.80822026729584,-0.592979311943054,0.311344146728516,1.5869638919830302,-0.7081097364425659,-0.7850486040115351
15,0.11906474828720098,-0.227753788232803,0.921378195285797,-37.5447959899902,-39.383262634277294,11.0895214080811,1.80906677246094,-0.5945873856544489,0.31114321947097806,1.7247025966644298,-0.932277858257294,-0.6199979186058039
16,0.445428788661957,-0.025325637310742995,0.823639631271362,-28.3839378356934,-33.287448883056605,14.192344665527301,1.8101305961608898,-0.59783661365509,0.30661997199058505,1.6204528808593797,-0.990801811218262,-0.497982770204544
17,0.307612657546997,-0.024594996124506,0.8678370118141171,-19.6170387268066,-19.3958721160889,15.470974922180199,1.8133674860000601,-0.596416175365448,0.306260794401169,1.509556889534,-1.3179140090942398,-0.193752199411392
18,-0.009124974720180002,-0.269123256206512,1.00420677661896,-14.7215900421143,-5.26331520080566,18.1666412353516,1.8125524520874,-0.600297749042511,0.30564671754837,1.43934488296509,-1.4638192653656,-0.082924485206604
19,0.061528861522675005,-0.43631687760353105,0.996677219867706,-11.3800268173218,0.17981654405593897,18.286411285400398,1.8134560585022,-0.601842761039734,0.30571576952934304,1.31300675868988,-1.8182063102722201,0.116055056452751
20,0.123928852379322,-0.10008205473423,1.01547622680664,-26.4764842987061,7.62744951248169,18.9168586730957,1.81172621250153,-0.60446697473526,0.30532217025756797,1.4099702835083001,-2.2718498706817596,0.28929823637008695
21,0.102168947458267,-0.133828908205032,1.08123970031738,-33.0654792785645,8.76243114471436,18.5149021148682,1.810462474823,-0.60615885257721,0.305058479309082,1.6595548391342199,-2.75651168823242,0.49245569109916704
22,0.12955455482006098,-0.270619869232178,1.1218470335006698,-41.4756088256836,3.1438150405883802,19.789371490478498,1.8117141723632801,-0.60977578163147,0.30501449108123807,1.75060832500458,-2.9705045223236097,0.689505636692047
23,0.123512208461761,-0.33886751532554604,1.11555540561676,-44.968379974365206,-15.6874513626099,21.8220405578613,1.80712580680847,-0.613086938858032,0.306133180856705,2.33100032806396,-3.16938900947571,0.7878127098083499
24,0.060538314282894,-0.019404850900173,1.1127240657806399,-36.7073249816895,-26.2611083984375,21.685867309570302,1.80956721305847,-0.613191425800324,0.30635914206504805,2.52062273025513,-3.1967473030090297,1.1064668893814098
25,-0.017402311787009,-0.23448143899440801,1.06664395332336,-16.8931980133057,-34.0494613647461,21.1862392425537,1.8091239929199199,-0.616889417171478,0.30653330683708196,2.7067995071411097,-2.7947602272033705,1.2618113756179798
26,0.023842573165894,-0.08893933892250099,1.07028388977051,-0.264526396989822,-30.7140216827393,20.329401016235398,1.80869436264038,-0.620449364185333,0.30972769856452903,2.78824281692505,-2.2388532161712598,1.4191734790802
27,-0.07364603877067599,-0.180995851755142,1.01375567913055,25.220159530639602,-25.2686748504639,20.4264240264893,1.80813491344452,-0.6216453313827509,0.309991329908371,2.8627481460571302,-1.7843271493911699,1.62668335437775
28,0.042427059262991,-0.058735799044371,0.93404632806778,44.5003814697266,-13.817161560058599,19.7015266418457,1.8068279027938798,-0.626691222190857,0.309836775064468,2.70541954040527,-1.0490411520004301,1.70701551437378
29,0.013201814144850001,-0.076397612690926,0.9355213642120358,52.233116149902294,-4.5544743537902805,20.4791889190674,1.80992436408997,-0.623154163360596,0.312454223632812,2.46913743019104,-0.857567071914673,2.11341309547424
30,0.090099103748798,0.043132834136486,0.8738743662834171,54.3425712585449,8.51556873321533,19.8311996459961,1.81614601612091,-0.6227864623069761,0.312816053628921,1.45148360729218,-0.330154001712799,2.64219212532043
31,0.067703083157539,-0.123418152332306,0.870765447616577,50.9117317199707,22.463357925415,18.0110130310059,1.81769454479218,-0.621126353740692,0.31334394216537503,1.10982012748718,-0.460820764303207,2.8705730438232404
32,-0.05723155289888401,-0.073146998882294,0.9295653700828549,37.5865478515625,33.6487617492676,16.2315788269043,1.8139475584030198,-0.6238611340522769,0.31087562441825894,1.03080701828003,-0.541243195533752,2.8362052440643297
33,0.096380814909935,-0.100779615342617,0.986198127269745,23.1048374176025,42.5184669494629,12.410071372985803,1.81867289543152,-0.621284186840057,0.31104624271392795,0.7143361568450931,-0.76661491394043,3.1509699821472203
34,0.082787916064262,-0.06336621940136,0.994322240352631,6.40226411819458,38.6806640625,10.9836978912354,1.8149037361145,-0.624842584133148,0.31104636192321805,0.759553670883179,-0.762116014957428,3.084153175354
35,0.09290461987257,-0.03804727643728299,0.9975809454917909,-5.7406926155090305,27.134075164794897,9.55945110321045,1.8113868236541701,-0.629985213279724,0.313996851444244,0.740700483322144,-0.542373776435852,2.9853894710540803
36,-0.023152101784945,0.0058589624240989995,1.01880550384521,-9.56338691711426,16.461612701415998,9.93245887756348,1.8125931024551398,-0.629793405532837,0.31437698006629905,0.587788462638855,-0.506699919700623,3.11923503875732
37,-0.013019948266446998,-0.008615645579993999,0.994009077548981,-5.95403337478638,9.53968620300293,8.16706657409668,1.81029117107391,-0.631653308868408,0.314784675836563,0.563251495361328,-0.39277783036232,3.1124088764190696
38,0.006918516010045999,-0.073294661939144,1.0634686946868899,2.58724164962769,8.10916423797607,6.8779435157775906,1.81233501434326,-0.631389439105987,0.3176537454128269,0.32734513282775896,-0.324093371629715,3.26152372360229
39,0.164254516363144,-0.10848455876112,1.09341168403625,10.4606971740723,11.3770437240601,5.99420595169067,1.8119900226593,-0.631958186626434,0.318385064601898,0.20661325752735102,-0.29660758376121504,3.3346750736236603
40,0.208544537425041,-0.255194246768951,1.14757704734802,14.404266357421902,13.7900485992432,5.024056434631349,1.8111752271652202,-0.633922100067139,0.319033831357956,0.103157326579094,-0.242264121770859,3.36352133750916
41,0.065582245588303,-0.144025355577469,1.08209264278412,11.640682220459,11.172324180603,5.834172248840329,1.80925941467285,-0.635706067085266,0.31974726915359497,0.14689329266548198,-0.317192405462265,3.38426089286804
42,0.037274096161127,-0.045179311186074995,1.07382035255432,9.33358383178711,13.5582265853882,6.25133991241455,1.8066657781600999,-0.636428952217102,0.323783814907074,0.28137949109077504,-0.5874380469322199,3.4131648540496804
43,0.08414560556411799,-0.137772306799889,1.05177164077759,0.838037371635437,12.501111030578599,5.07981538772583,1.8068550825118999,-0.637757897377014,0.32460591197013894,0.262911587953567,-0.826383352279663,3.50655841827393
44,0.048857919871806994,-0.365387558937073,0.9659421443939209,-6.9179387092590305,5.154884338378911,6.3099675178527805,1.8064994812011699,-0.640087842941284,0.325401276350021,0.324625968933106,-1.1105415821075402,3.5860962867736803
45,0.142030447721481,-0.176553711295128,0.9580078125,-14.672943115234402,-0.38311269879341103,7.0608992576599094,1.80633366107941,-0.641110062599182,0.321113169193268,0.439234107732773,-1.52223944664001,3.6876308917999303
46,0.064001478254795,0.001936271553859,0.9481524825096129,-26.959814071655302,-2.45745849609375,7.90228796005249,1.80536568164825,-0.6444478034973139,0.321309626102447,0.5419140458106989,-1.68366742134094,3.7308595180511497
47,-0.04468415305018401,-0.186215460300446,0.949568331241608,-36.7281646728516,-8.948549270629881,8.578441619873049,1.80658996105194,-0.6431924104690551,0.32158333063125605,0.490123450756073,-2.12154936790466,3.8284082412719704
48,0.117659412324429,-0.001828259555623,0.8649728298187259,-40.730766296386705,-11.993811607360803,8.662075042724611,1.80811810493469,-0.6435178518295289,0.32548487186431896,0.29516416788101196,-2.25141263008118,3.8976497650146498
49,0.066133618354797,0.036140911281109,0.803202211856842,-34.5283355712891,-8.8237943649292,6.949673652648929,1.80954837799072,-0.643471658229828,0.32577264308929405,0.12027660012245199,-2.28965663909912,3.95905232429504
50,-0.14643345773220098,0.21016874909400898,0.858449399471283,-25.333381652832,-6.62547206878662,4.24994707107544,1.80827569961548,-0.6461742520332329,0.32610663771629306,0.06794379651546499,-2.0510516166687,3.92390322685242
51,-0.06693317741155601,0.09817157685756699,0.956511080265045,-13.369729995727502,6.05173063278198,1.9104293584823602,1.8090728521347,-0.64691025018692,0.32593122124671897,-0.056372631341219004,-1.86368227005005,3.9642269611358603
52,0.000906782923266,0.013784658163786002,0.9934499263763431,0.30652636289596596,7.3819475173950195,1.2040606737136799,1.80678737163544,-0.648485779762268,0.32634595036506703,-0.023989956825972,-1.67924237251282,3.9259676933288596
53,0.11083605885505698,-0.123275324702263,1.09597980976105,10.4614572525024,11.589451789856,0.032537691295147005,1.80675673484802,-0.6497867703437811,0.32667788863182107,-0.10487519949674601,-1.43930649757385,3.98298621177673
54,0.069416515529156,-0.141050934791565,1.12138247489929,17.0057258605957,7.443006038665769,0.9301079511642459,1.80806827545166,-0.649385035037994,0.326987326145172,-0.24690827727317802,-1.3729935884475701,4.0829586982727095
55,0.040536597371101,0.10457093268632901,0.999793410301208,21.726598739624,5.67031049728394,2.41237235069275,1.80595219135284,-0.650192141532898,0.32824212312698403,-0.19940653443336498,-1.3492642641067498,4.06166887283325
56,-0.04838009923696499,0.00495914882049,0.8705924153327941,20.4209766387939,6.84681701660156,4.7857565879821795,1.8057893514633199,-0.6504459381103521,0.32855218648910495,-0.163637518882751,-1.33702313899994,4.09686326980591
57,-0.0009636997710910001,0.054476067423820995,0.869060218334198,14.0342378616333,5.62559413909912,5.19720268249512,1.80530166625977,-0.6508857011795041,0.328948736190796,-0.10253240913152699,-1.30257403850555,4.10144090652466
58,-0.007329080719500999,0.078350886702538,0.97748589515686,12.001129150390598,3.4071624279022203,4.0036950111389205,1.8050719499588002,-0.6514621376991271,0.33352696895599393,-0.078528366982937,-1.22376418113709,4.101951599121089
59,-0.06365906447172201,0.03823347389698,1.10603475570679,6.31952428817749,-5.7920241355896,3.2496323585510294,1.8041132688522301,-0.6525211334228521,0.334195047616959,-0.0052128904499109995,-1.1057430505752601,4.058825969696049
60,0.050812292844057,0.1439558416605,1.11721074581146,7.16342306137085,-6.7559952735900906,1.07914257049561,1.8011491298675502,-0.654527485370636,0.33475562930107106,0.11769209057092699,-0.934579193592072,3.93324971199036
61,0.154100880026817,-0.129758358001709,1.05318903923035,8.06443119049072,-2.16919994354248,-0.732279479503632,1.8002548217773402,-0.655599474906921,0.334087789058685,0.10482450574636501,-0.7794118523597721,3.8642292022705096
62,0.14420765638351402,-0.141117677092552,0.9684239625930791,9.65219211578369,-4.060691833496089,-2.43103432655334,1.80184233188629,-0.654986798763275,0.33443999290466303,-0.12973852455616,-0.699631631374359,3.84730458259583
63,-0.028039358556271,-0.053255524486303,0.919617116451263,14.1288156509399,0.8479977250099179,-4.92109680175781,1.8034780025482198,-0.6551334261894229,0.33453008532524103,-0.417917937040329,-0.55424565076828,3.82560229301453
64,-0.017700443044305,0.0011561344144870001,0.840787768363953,13.375920295715302,3.11558389663696,-5.75957441329956,1.8038905858993501,-0.6555641293525699,0.33453032374382,-0.6773008108139039,-0.451882034540176,3.7520825862884504
65,0.066362924873829,0.125343918800354,0.755271553993225,13.777087211608901,10.0857343673706,-7.06498098373413,1.8048897981643701,-0.6556002497673029,0.33470174670219394,-0.987967193126678,-0.406179308891296,3.6761455535888703
66,-0.010781380347908001,0.08408610522747001,0.837871432304382,11.935820579528801,18.7032260894775,-7.846420764923099,1.80416536331177,-0.655517637729645,0.334825754165649,-1.15053129196167,-0.467522621154785,3.5405483245849596
67,-0.018626010045409,0.078725688159466,1.0036184787750202,10.637057304382301,21.621662139892603,-9.10535717010498,1.80387771129608,-0.656612455844879,0.33484822511673,-1.17717230319977,-0.394025266170502,3.45882678031921
68,-0.016505971550942,0.09413252770900699,1.0325721502304102,6.76755285263062,23.9969139099121,-10.262311935424801,1.80159449577332,-0.658129274845123,0.33590033650398304,-1.0033055543899498,-0.381051331758499,3.34969520568848
69,0.12088277935981698,-0.131711959838867,1.03521060943604,2.871901512146,18.5926284790039,-10.635416030883801,1.79993176460266,-0.6593438386917111,0.33578285574913,-0.7728141546249391,-0.47709321975708,3.29175710678101
70,0.181377857923508,-0.194567978382111,0.9397735595703121,0.8455246686935429,7.319674491882321,-9.09781360626221,1.80054044723511,-0.658611059188843,0.33570164442062395,-0.664194822311401,-0.8464752435684201,3.2543160915374796
71,0.058638773858547,-0.043544288724661005,0.8659502267837521,-1.33795714378357,-2.1268372535705597,-8.06818008422852,1.79662430286407,-0.658713698387146,0.335292816162109,-0.18227352201938604,-1.27124190330505,3.1387555599212598
72,-0.150419056415558,-0.026105716824532003,0.8733970522880551,-10.4952764511108,-12.2935209274292,-4.5096230506897,1.79904651641846,-0.65956711769104,0.335204005241394,0.113762319087982,-1.37705552577972,3.24762582778931
73,-0.15810261666774802,0.211689919233322,0.9414600133895871,-21.798963546752898,-23.6769199371338,-1.68764913082123,1.79767644405365,-0.660608410835266,0.335043340921402,0.5878124833106989,-1.54835188388824,3.24382281303406
74,0.004771525971590999,0.264090150594711,0.964786291122436,-25.778348922729503,-32.2891120910645,-0.5769458413124079,1.80002903938293,-0.66060084104538,0.335188776254654,0.7306915521621701,-1.63909292221069,3.2838792800903303
75,0.107894890010357,-0.016264919191599,1.1227926015853897,-28.0614318847656,-38.7318572998047,-0.223136648535728,1.80168461799622,-0.6613192558288571,0.33475935459137,0.832273781299591,-1.5822566747665399,3.31104183197021
76,0.46674033999443104,-0.17273595929145802,1.08862912654877,-22.6182136535645,-38.7614707946777,-0.8123586773872371,1.80163669586182,-0.661494910717011,0.33467209339141807,0.8640952110290531,-1.56263816356659,3.2574925422668497
77,0.21343156695365897,-0.28926265239715604,1.05906236171722,-12.756837844848599,-31.299442291259798,-2.32916116714478,1.8027864694595301,-0.661918759346008,0.334568351507187,0.7048846483230591,-1.3788747787475601,3.22241711616516
78,-0.02462842874229,-0.09892822057008802,0.982559084892273,-4.07307720184326,-19.2472763061523,-3.40186095237732,1.80446779727936,-0.662795305252075,0.3327559232711789,0.386029005050659,-1.01716017723084,3.2006430625915496
79,-0.126795440912247,0.008349233306944,0.9045743942260741,4.13187503814697,-7.31713962554932,-4.75334119796753,1.80782699584961,-0.6622679233551031,0.33245667815208396,-0.22812896966934196,-0.576488971710205,3.1835174560546897
80,-0.039392106235027,0.021472569555043997,0.958418369293213,13.9204883575439,8.650815010070799,-6.47831201553345,1.8105976581573502,-0.664714157581329,0.331852197647095,-0.832184255123138,0.28461095690727195,3.1825647354126
81,-0.049425236880779,0.00194106309209,0.923958659172058,24.9748916625977,22.2296409606934,-6.3408951759338406,1.8088568449020401,-0.66508275270462,0.32764512300491305,-1.2808401584625202,0.8350906372070309,3.04530715942383
82,0.008059307001531001,-0.001902057323605,1.01677322387695,43.7785758972168,41.1471405029297,-7.78871917724609,1.81136739253998,-0.6660810112953189,0.326866120100021,-1.9431570768356299,1.60167014598846,3.01961874961853
83,-0.007637207396328,-0.0025498992763460003,0.977690756320953,60.5142211914063,51.8175735473633,-8.30890464782715,1.80991685390472,-0.66592675447464,0.327040404081345,-2.19124364852905,1.98505675792694,2.9241349697112997
84,0.080995835363865,0.077328070998192,1.07009756565094,65.0928497314453,55.3127098083496,-9.16976165771484,1.80983591079712,-0.666033685207367,0.32965308427810697,-2.3289985656738303,2.2904667854309104,2.8955681324005096
85,0.048250965774059004,0.06122442334890401,1.15790212154388,64.0494842529297,50.65507507324221,-8.289417266845701,1.8075702190399199,-0.6655418276786801,0.33017855882644703,-2.16958236694336,2.3424038887023904,2.839928150177
86,-0.019634459167719,-0.162679523229599,1.09662890434265,54.6526069641113,34.586799621581996,-5.19459342956543,1.8057721853256201,-0.665158033370972,0.330604642629623,-1.89349436759949,2.2367901802062997,2.83090710639954
87,-0.06488285958766901,-0.17393974959850303,1.07591211795807,39.4017333984375,15.713766098022498,-0.200440168380737,1.8052687644958503,-0.665202558040619,0.33079630136489896,-1.5271098613738998,2.0986120700836204,2.8950192928314196
88,0.163881570100784,-0.07393613457679801,0.9798464179039,24.383020401001,-1.20355832576752,1.8616013526916497,1.8065866231918302,-0.666217565536499,0.331424117088318,-1.2859898805618302,1.9421563148498502,2.9632842540741002
89,0.194321572780609,-0.021361608058214,1.0482149124145501,6.21379613876343,-12.6104917526245,4.71547269821167,1.80692136287689,-0.666213631629944,0.331449657678604,-0.754678130149841,1.75891602039337,3.11439895629883
90,0.17233873903751398,-0.11890486627817201,1.04364466667175,-10.1487226486206,-22.5242481231689,5.3247575759887695,1.80788230895996,-0.6662285327911379,0.331190675497055,-0.19301198422908802,1.6463354825973502,3.3517653942108194
91,0.195876061916351,-0.269134610891342,1.01210153102875,-20.5144672393799,-29.818786621093697,6.66384029388428,1.80738031864166,-0.66736513376236,0.327443033456802,-0.031089225783943998,1.4356584548950202,3.3510756492614706
92,0.11085765063762701,-0.43120819330215504,0.8596499562263492,-21.5150451660156,-39.598850250244105,6.5643000602722195,1.8085905313491801,-0.67036509513855,0.32698771357536305,-0.23695889115333602,1.4604413509368899,3.32903289794922
93,0.050377015024424,-0.29981157183647195,0.889662742614746,-21.384752273559602,-43.9950294494629,8.99853515625,1.80863881111145,-0.670933127403259,0.32635608315467796,-0.292541235685349,1.40989422798157,3.4073479175567596
94,0.072637692093849,0.024222543463110997,0.88345992565155,-17.1924743652344,-30.544876098632802,8.53877639770508,1.8091641664504998,-0.672456383705139,0.324947535991669,-0.5831742882728579,1.4921473264694198,3.43378400802612
95,-0.040274564176798,-0.07115744054317501,0.836027979850769,-8.10312461853027,-12.604227066039998,10.032435417175302,1.80933141708374,-0.674056351184845,0.323922246694565,-0.969792246818542,1.54676151275635,3.40355587005615
96,-0.065144911408424,-0.047426652163267,0.883534491062164,-3.7587649822235094,3.95920014381409,8.999025344848631,1.8113327026367199,-0.675674021244049,0.322614014148712,-1.21159422397614,1.74289262294769,3.5443537235259996
97,-0.022619336843491,0.009863950312138001,0.8145186901092529,4.86683082580566,17.902946472168,6.68233394622803,1.8115940093994098,-0.675720870494843,0.321604698896408,-1.3278989791870102,1.6503869295120202,3.60747098922729
98,0.085102029144764,0.012546322308481,0.7975705862045291,9.7754602432251,23.783088684082,5.93098926544189,1.8106149435043302,-0.6758072972297672,0.320019960403442,-1.4101984500885,1.3726285696029699,3.50643587112427
99,-0.031938474625348996,0.25398746132850697,0.8746760487556461,3.9152679443359397,26.0095596313477,4.60254287719727,1.81121397018433,-0.6770623326301579,0.31894958019256603,-1.4005800485611,1.19802153110504,3.4406967163085898
