,acc.x,acc.y,acc.z,gyro.x,gyro.y,gyro.z,stateEstimate.x,stateEstimate.y,stateEstimate.z,stabilizer.pitch,stabilizer.roll,stabilizer.yaw
0,-0.133275210857391,0.133343368768692,0.98757004737854,18.5887756347656,2.44331836700439,4.850990295410161,1.80226957798004,0.22120097279548603,0.303113430738449,0.107535198330879,-0.8809251189231869,1.90022015571594
1,-0.132327944040298,0.11393801122903802,1.01464176177979,25.1809597015381,0.7715560793876651,5.3792586326599094,1.8022466897964498,0.22022862732410398,0.302442878484726,0.126062825322151,-0.6539193987846371,1.94860863685608
2,-0.08317755907774001,0.156495437026024,0.9229359030723571,23.920730590820302,2.5183696746826203,6.6964864730835,1.80219161510468,0.22139473259448997,0.3019791841506961,0.11059367656707801,-0.644564688205719,1.98468852043152
3,-0.005194904282689,-0.066704973578453,0.932007908821106,19.5625534057617,0.8610965609550479,7.77718019485474,1.80227947235107,0.220024779438972,0.30082669854164096,0.106863930821419,-0.36519089341163596,2.06829118728638
4,-0.05457437783479701,0.04851371049881,0.9897878170013431,13.2274932861328,-0.976769506931305,8.465785980224611,1.8022472858429,0.219071000814438,0.299974232912064,0.1316307336092,-0.20544926822185502,2.14838695526123
5,-0.037559650838375,-0.026958765462041,1.1054993867874099,5.577881336212161,-2.39063405990601,9.910177230834961,1.8021243810653702,0.21856786310672802,0.29921376705169705,0.16252133250236497,-0.16794958710670496,2.2390499114990203
6,-0.010601509362458999,0.025422565639019,1.1664320230483998,-2.3592748641967796,-6.00774335861206,9.51913928985596,1.80176293849945,0.21858559548854803,0.295306771993637,0.234502226114273,-0.270589381456375,2.32813954353333
7,-0.0027291958685960005,-0.029270963743328996,1.1749349832534801,-8.42004871368408,-7.89322853088379,9.30823040008545,1.80211758613586,0.21843837201595298,0.294644504785538,0.24909895658493,-0.3945513665676121,2.42159581184387
8,-0.032950662076473,0.08416428416967402,1.1948815584182702,-9.31940841674805,-11.2639570236206,8.91947650909424,1.80132484436035,0.21891611814498899,0.29421868920326194,0.41030496358871504,-0.631052911281586,2.5003683567047097
9,-0.036765232682228,0.163647428154945,1.1426680088043202,-6.34188604354858,-11.828827857971199,6.896111965179441,1.8006397485733,0.2171241492033,0.29221463203430204,0.581212878227234,-0.596690535545349,2.5855154991149902
10,-0.081896908581257,0.261739194393158,1.03823447227478,-2.70079278945923,-7.08889293670654,5.81379175186157,1.8018076419830302,0.21680748462677,0.292005002498627,0.517764389514923,-0.6585339307785029,2.6523926258087203
11,-0.12276496738195401,0.008723184466362,1.0933479070663499,4.845818996429441,-2.41743421554565,4.35568618774414,1.8024080991745002,0.21664923429489102,0.291827201843262,0.474344879388809,-0.6702879667282099,2.7008821964263903
12,-0.13300476968288402,0.219284906983376,0.9916675090789799,13.2147998809814,1.7546315193176298,2.5153911113739,1.8025902509689298,0.214390471577644,0.29161283373832697,0.460193514823914,-0.37720167636871293,2.73106241226196
13,0.118070386350155,-0.0071875657886270004,1.04259848594666,18.447820663452102,6.46426010131836,1.08811128139496,1.80294442176819,0.21472993493080103,0.29201757907867404,0.37318301200866705,-0.31284573674202004,2.7454833984375
14,0.06823227554559701,0.203848421573639,0.8520753979682919,25.361282348632802,4.61546468734741,-1.3192746639251698,1.80323505401611,0.213752225041389,0.29183650016784696,0.311083018779755,-0.015691904351115,2.7356166839599596
15,0.029387744143605,0.007393412292004,1.00545859336853,22.4709777832031,7.60499143600464,-0.767773151397705,1.80364048480988,0.213758751749992,0.291667550802231,0.21262301504612,0.15012085437774697,2.72910261154175
16,0.041952710598707005,0.099263183772564,0.9038459062576291,24.0657958984375,8.02726745605469,-2.08074069023132,1.8026262521743799,0.21278253197670002,0.28914776444435103,0.269615411758423,0.43994170427322404,2.7074038982391397
17,-0.18080745637416798,-0.06456709653139099,0.872188925743103,22.976099014282198,10.5047245025635,-0.8872506618499759,1.8031185865402202,0.213412165641785,0.28873315453529397,0.138342306017876,0.561557054519653,2.69386982917786
18,0.07025180757045799,-0.065332263708115,0.897243559360504,22.6735343933105,16.263595581054698,-1.06083083152771,1.80412542819977,0.21187496185302698,0.287927895784378,-0.091962032020092,0.91786789894104,2.67930269241333
19,-0.08316420018673,-0.119037285447121,0.9723485708236691,23.5958576202393,18.8831520080566,-0.844178795814514,1.8038346767425502,0.2110435962677,0.287736743688583,-0.20571893453598,1.20233154296875,2.67451357841492
20,-0.053312141448259,0.014155779033898997,0.9910280704498291,14.843788146972699,20.2400341033936,0.187477752566338,1.80437481403351,0.210632130503654,0.287001520395279,-0.43856009840965293,1.33680403232574,2.67055106163025
21,0.24846033751964602,-0.028433995321393,1.04222893714905,11.053281784057601,15.8974266052246,0.139981925487518,1.8047406673431399,0.20988294482231099,0.286217451095581,-0.6280043721199039,1.4541449546813998,2.66989946365356
22,0.20358674228191398,0.032434031367302,1.02757883071899,3.23120737075806,9.50999736785889,-0.5817591547966,1.8034813404083299,0.210211664438248,0.285743176937103,-0.569242060184479,1.4432678222656297,2.70373487472534
23,0.048845976591109994,0.18905961513519298,1.1313345432281499,-4.34107208251953,0.21375121176242803,-2.18820691108704,1.8036406040191697,0.209671065211296,0.286239922046661,-0.6229143142700201,1.37655246257782,2.68102169036865
24,0.006142398808151,0.024471130222082003,1.0865774154663101,-6.47778463363647,-6.6111760139465305,-4.14784240722656,1.80327236652374,0.210061714053154,0.28596132993698103,-0.533825576305389,1.1970530748367298,2.6439602375030495
25,0.06456770002842,0.09770594537258198,1.03770899772644,-9.13028240203857,-13.0405731201172,-5.2607479095459,1.8032494783401498,0.20934768021106698,0.285580784082413,-0.401923716068268,1.13094437122345,2.5999281406402597
26,0.014184352941811001,0.012063082307577,1.07027447223663,-11.5233421325684,-18.413888931274396,-5.60471248626709,1.8028290271759,0.20940236747264898,0.285779505968094,-0.15356220304966,0.943484723567963,2.5429480075836204
27,0.10289301723241802,0.005228667054325,1.05039417743683,-15.038560867309599,-18.8724460601807,-5.94044828414917,1.80320560932159,0.20723673701286302,0.285432040691376,0.032295383512974,1.03173387050629,2.51075100898743
28,0.28540995717048606,-0.024005271494389,0.9362419247627259,-19.8556003570557,-17.947950363159197,-5.31143712997437,1.8031804561615,0.207631602883339,0.28545069694519004,0.205109238624573,0.643948554992676,2.4099087715148904
29,0.07411340624094,-0.285028636455536,0.926907122135162,-21.8297901153564,-15.086682319641099,-3.98880243301392,1.8036031723022499,0.206162214279175,0.28299638628959695,0.335950881242752,0.549216389656067,2.3637080192565896
30,0.12453146278858197,-0.22426037490367898,1.08824157714844,-20.802057266235302,-10.4192934036255,-3.66170287132263,1.80406630039215,0.205967158079147,0.28265923261642495,0.378519833087921,0.21180675923824302,2.27592921257019
31,0.12529693543911,-0.143082961440086,1.14494001865387,-15.792574882507301,-5.44316816329956,-2.92799878120422,1.80414283275604,0.20367705821991,0.28231129050254805,0.46326023340225203,0.321322411298752,2.2987091541290297
32,0.227639615535736,0.019566588103771,1.1810184717178303,-9.3126859664917,-1.47750651836395,-2.9355688095092796,1.80518817901611,0.203213751316071,0.282366544008255,0.304821938276291,0.042571902275086,2.19606161117554
33,0.28331625461578397,0.057305049151181994,1.2455123662948602,-2.3129913806915297,1.90922737121582,-2.94197058677673,1.8055840730667099,0.20097251236438698,0.286529004573822,0.264226287603378,0.187162548303604,2.18370580673218
34,0.035732720047236,0.295995444059372,1.1536291837692298,3.8140645027160605,3.4248032569885294,-3.18112325668335,1.8058732748031598,0.200712531805038,0.287131041288376,0.19709429144859303,0.11210359632968901,2.13920640945435
35,0.165491297841072,0.20485945045948004,1.05901503562927,7.79586410522461,4.895349502563481,-2.73883318901062,1.80625903606415,0.199045792222023,0.287729620933533,0.137375593185425,0.2761002779006961,2.11345219612122
36,0.523795783519745,0.26320511102676397,0.863233983516693,12.0384187698364,6.7558903694152805,-4.11522531509399,1.80664992332459,0.19829128682613398,0.28639152646064797,0.052464857697486995,0.37180355191230796,2.0667099952697803
37,0.258080393075943,-0.08886132389307001,0.8382558226585392,11.9228925704956,5.09227418899536,-2.92725157737732,1.8069386482238798,0.19800011813640603,0.286804229021072,0.006656959187239,0.43699419498443604,2.02955508232117
38,0.055636160075665006,-0.134210839867592,0.8739494681358341,8.57628059387207,-0.5979806184768679,-3.426589012146,1.8068990707397499,0.19681130349636103,0.286937743425369,0.07407356053590801,0.6177818775177,2.00971293449402
39,-0.00683165108785,-0.231594055891037,0.8616496920585629,3.44888734817505,-1.5931303501129197,-3.98394012451172,1.80685019493103,0.196419030427933,0.288720041513443,0.13619120419025402,0.62936931848526,1.97907173633575
40,0.162345573306084,-0.285943180322647,0.9764274358749391,-4.939985275268559,-5.44879055023193,-3.25818634033203,1.80652046203613,0.19662077724933602,0.28885555267334,0.25497746467590304,0.511334657669067,1.95866358280182
41,0.057783752679824996,-0.16930715739726998,1.1181644201278702,-11.2249021530151,-6.1852931976318395,-3.9136734008789102,1.8062553405761699,0.19663785398006398,0.288990467786789,0.35474479198455794,0.342777013778686,1.92892146110535
42,0.435298621654511,-0.243900448083878,1.21346855163574,-12.929084777832001,-8.940958976745609,-4.91300058364868,1.8070756196975701,0.19415426254272503,0.296327143907547,0.35884991288185103,0.35939845442771895,1.86590147018433
43,0.334584385156632,0.168516531586647,1.2687052488327,-16.1088523864746,-11.1638956069946,-3.652672290802,1.8077641725540199,0.19348904490470897,0.297292530536652,0.383129715919495,0.125691547989845,1.80669224262238
44,0.108630530536175,0.151085391640663,1.2142908573150601,-13.7115316390991,-13.927730560302699,-4.29903030395508,1.80725729465485,0.192786678671837,0.298479616641998,0.5817188024520871,-0.014681037515402002,1.79063880443573
45,-0.001242716331035,0.210869684815407,1.17523860931396,-7.420850276947019,-15.238893508911099,-4.82571840286255,1.80720686912537,0.192077696323395,0.299899816513061,0.723348677158356,-0.119679845869541,1.7488199472427401
46,-0.036956369876862,0.15795348584652,1.1192120313644398,2.0156612396240203,-16.4600200653076,-5.42655515670776,1.8083565235137902,0.190337598323822,0.302598029375076,0.7341364026069641,-0.07940585911274001,1.66623306274414
47,-0.096583619713783,0.23459807038307198,1.07110369205475,7.679858684539799,-15.795020103454599,-6.137348175048831,1.80884385108948,0.18924133479595198,0.30436497926712,0.8427500724792479,-0.020184077322483004,1.5987583398818999
48,-0.098016411066055,0.26376536488533,1.02275621891022,12.061602592468299,-13.188575744628901,-6.771784782409671,1.80880355834961,0.188013002276421,0.306154370307922,0.9986247420310971,0.11247825622558599,1.53163146972656
49,-0.141757920384407,0.19535705447197002,1.0115045309066801,15.276336669921902,-11.913200378417999,-8.13192939758301,1.80877256393433,0.187288656830788,0.30654871463775607,1.1424736976623502,0.224627166986465,1.45692563056946
50,-0.18931020796299,0.377821654081345,0.9731770157814029,15.391981124877901,-11.3188724517822,-8.05288982391357,1.8088356256485,0.186476156115532,0.308308273553848,1.25168204307556,0.35274234414100697,1.37309217453003
51,-0.110861077904701,0.22442120313644398,0.900562763214111,15.3560523986816,-7.4434490203857395,-8.20227432250977,1.8104325532913201,0.18516296148300196,0.310085862874985,1.1495920419693,0.5073106288909911,1.26490521430969
52,0.176110997796059,0.035337626934052,0.9069782495498661,12.171259880065902,0.461373180150986,-8.32478809356689,1.8110666275024399,0.184219777584076,0.31318241357803306,1.1126991510391202,0.615640163421631,1.17690896987915
53,0.023694064468145003,0.200300216674805,0.847410500049591,5.93552589416504,5.79898452758789,-8.23246383666992,1.81075263023376,0.18408252298831898,0.31481981277465804,1.1278051137924199,0.629715025424957,1.11303925514221
54,0.009715786203741998,0.05488496273756,0.7889826893806461,3.40175914764404,6.8683180809021,-8.41718864440918,1.81126463413239,0.18368668854236603,0.316260129213333,1.02063143253326,0.64359188079834,1.0304249525070202
55,-0.013786183670163,-0.134453818202019,0.699773788452148,-0.5219680666923521,9.32217979431152,-8.762866973876951,1.81174778938293,0.182568117976189,0.317358553409576,0.917480289936066,0.6792092323303219,0.934017956256866
56,-0.018291147425771,-0.109065309166908,0.765603005886078,-2.42717170715332,10.4409828186035,-9.90347862243652,1.8108222484588603,0.18338698148727398,0.316711992025375,0.9941036701202389,0.567247152328491,0.8836070895195011
57,0.13668181002139998,0.018169803544878998,0.8232523202896121,-2.5372707843780495,12.2988967895508,-10.445408821106,1.80993843078613,0.18405619263648998,0.31725770235061607,1.02186357975006,0.47580295801162703,0.8197689652442929
58,0.189999520778656,-0.024752022698522006,0.854216635227203,4.86134386062622,13.878746032714801,-11.4012279510498,1.81006479263306,0.183739095926285,0.317585438489914,0.872305929660797,0.493716418743134,0.7114353179931641
59,0.171158865094185,-0.02942499704659,0.942357957363129,4.644701957702639,10.758883476257301,-10.2056312561035,1.809525847435,0.182660296559334,0.31681522727012607,0.7927761077880859,0.58883935213089,0.609031617641449
60,0.228977337479591,0.012253925204277002,0.937305867671967,9.57780933380127,8.87887096405029,-8.42485237121582,1.81013250350952,0.18187236785888697,0.316876709461212,0.623238801956177,0.6696292161941529,0.5112843513488771
61,0.11547040194272999,-0.111003629863262,0.8487803339958191,13.119643211364698,6.89574956893921,-8.44625282287598,1.8105877637863201,0.181815326213837,0.31684517860412603,0.517437040805817,0.7425129413604741,0.432317584753037
62,0.073861189186573,0.01025019120425,0.849365770816803,13.9736938476563,5.52497911453247,-8.43052577972412,1.80969047546387,0.17569971084594702,0.318898677825928,0.53118246793747,1.28112590312958,0.269059151411057
63,-0.017254462465643997,-0.031851142644882,0.9601123332977299,13.0903539657593,2.91643857955933,-6.70986127853394,1.8098233938217199,0.174904644489288,0.31867119669914196,0.48833277821540794,1.38465738296509,0.20030924677848802
64,0.11627569794654799,-0.108316510915756,0.823103964328766,6.80737400054932,5.29508256912231,-5.42494916915894,1.8094495534896897,0.174354046583176,0.318319380283356,0.47810274362564104,1.46425712108612,0.15787397325038902
65,0.10833109170198402,-0.37790906429290794,0.820989310741425,2.7679038047790496,0.876721799373627,-4.9907021522522,1.80948233604431,0.172788292169571,0.320436358451843,0.44186875224113503,1.55582749843597,0.09969320148229599
66,-0.012458745390176999,-0.471514374017715,0.8879602551460269,-6.15124940872192,-0.038284476846457,-2.70146441459656,1.8087975978851298,0.173446699976921,0.320012032985687,0.5230363607406621,1.4265540838241597,0.112079277634621
67,-0.07024171203374902,-0.35796028375625605,0.9936551451683041,-12.871685028076199,0.106007069349289,-0.6716488599777221,1.80858087539673,0.170687511563301,0.31917172670364397,0.529566049575806,1.44291877746582,0.082628510892391
68,0.041239071637391995,-0.051637351512909,1.07323026657105,-17.9418029785156,2.4780409336090097,0.511403918266296,1.80859184265137,0.168535202741623,0.31843522191047696,0.48474389314651506,1.3210791349411,0.07301630824804299
69,-0.024789176881312998,0.261145323514938,1.1279262304306001,-19.6259460449219,4.61363363265991,1.66762840747833,1.8075631856918302,0.168089300394058,0.32090395689010603,0.514709234237671,1.08046984672546,0.127900525927544
70,0.07627853006124499,0.196109980344772,1.02384078502655,-20.0623817443848,7.31317853927612,2.8934540748596205,1.8073807954788201,0.166195154190064,0.320587456226349,0.41482272744178794,0.9218537211418149,0.142675325274468
71,-0.040894694626331,0.07931998372078,0.8623150587081909,-18.740161895752,7.989032745361331,2.71141362190247,1.80773878097534,0.162959530949593,0.320132285356522,0.26783829927444497,0.8470072746276851,0.126208931207657
72,-0.131009146571159,0.08831897377967801,0.9126151800155641,-19.3229351043701,6.41753435134888,2.6598064899444602,1.80603408813477,0.163678333163261,0.32415911555290194,0.37644565105438205,0.544257164001465,0.223787635564804
73,0.17716471850871998,0.048764821141958,0.9141689538955692,-17.0514335632324,5.32334327697754,3.32485723495483,1.80634224414825,0.161974385380745,0.32393592596054105,0.235288932919502,0.37832459807395896,0.225109368562698
74,-0.018666308373213,-0.19284126162529,1.01424515247345,-14.9442939758301,4.43797016143799,4.37510108947754,1.8066405057907098,0.16024348139762898,0.32364422082901,0.11577902734279599,0.23530992865562397,0.245411857962608
75,-0.033927738666535,-0.063427492976189,1.0327968597412098,-18.6426773071289,0.726260900497437,5.33086585998535,1.80728650093079,0.156994670629501,0.32349205017089805,0.013876672834158003,0.177276596426964,0.259307950735092
76,0.031287979334593,0.11890794336795801,1.09891021251678,-11.171531677246099,-7.266448974609379,5.838199615478519,1.8068773746490498,0.155580267310143,0.32326102256774897,0.105141021311283,0.053297959268093,0.32500141859054604
77,-0.093608006834984,0.123303018510342,1.19228732585907,-5.59109830856323,-11.9120588302612,7.0817155838012695,1.80617022514343,0.153102099895477,0.32306474447250394,0.270815759897232,0.08446174114942599,0.403767824172974
78,-0.015905780717731,0.282205939292908,1.13924717903137,0.16143915057182298,-13.0120601654053,8.21832752227783,1.8053169250488301,0.15267369151115398,0.323237091302872,0.4628273546695711,-0.026261085644364,0.501144647598267
79,-0.013243107125162999,0.310404866933823,1.04632079601288,0.057165544480085,-9.05364608764648,9.3583402633667,1.8047158718109098,0.152654752135277,0.32625383138656605,0.56979364156723,-0.17769141495227803,0.598464369773865
80,0.085810542106629,0.230790033936501,0.973108053207397,-1.56579732894897,-4.65887689590454,8.544957160949709,1.80589532852173,0.15088447928428697,0.32670921087265004,0.45416352152824396,-0.199723362922668,0.662313342094421
81,0.180683746933937,0.17778003215789803,0.92853581905365,-2.7184476852417006,3.2193827629089395,8.05480289459229,1.8069047927856399,0.149289637804031,0.32708546519279497,0.29921498894691495,-0.229742959141731,0.7276566624641422
82,-0.091354012489319,-0.09206248819828,0.870930135250092,-5.33280324935913,6.95819616317749,7.989131927490231,1.80744063854218,0.14788176119327498,0.328348815441132,0.16220638155937198,-0.283142328262329,0.800176620483398
83,-0.078729927539826,-0.08159761130809799,0.9265096783638,-6.8586311340332005,7.2321896553039595,7.58517122268677,1.8070750236511202,0.148352205753326,0.32869952917099,0.13711468875408198,-0.517066717147827,0.8801345825195309
84,0.09418790042400399,-0.07775473594665501,0.95115715265274,-6.4772515296936,8.97559261322022,7.059198379516599,1.8052767515182502,0.145657062530518,0.328801214694977,0.224943250417709,-0.42872628569603005,0.9561786055564879
85,0.037130415439606004,-0.044073335826397005,0.9879510998725891,-6.2703361511230495,11.1211795806885,6.72867822647095,1.8059500455856299,0.143587559461594,0.33032056689262396,0.033790029585362,-0.42861762642860396,1.02137112617493
86,0.18781809508800498,-0.006663639098406,0.902251124382019,-4.7476925849914595,12.0630645751953,6.42603540420532,1.8058550357818601,0.142297565937042,0.330499678850174,-0.072010017931461,-0.48084962368011497,1.08529317378998
87,0.07060598582029401,-0.021355232223868002,0.9674947261810299,-5.84036827087402,16.3905715942383,5.990240097045901,1.8053517341613798,0.142659246921539,0.3307777643203739,-0.203188434243202,-0.7144893407821659,1.13950347900391
88,-0.036825332790612994,-0.183426588773727,0.976978361606598,-2.16478300094604,16.3293018341064,6.67702865600586,1.80496609210968,0.13964873552322402,0.330772459506988,-0.338043481111526,-0.554705202579498,1.20805239677429
89,-0.007913570851088,-0.028487905859947003,0.987361311912537,-1.69379091262817,17.44358253479,6.04821109771729,1.80449974536896,0.13882878422737102,0.332040697336197,-0.482320785522461,-0.6315224170684809,1.26340985298157
90,0.009299889206886,0.038426693528891,0.961604297161102,1.78285813331604,17.5332717895508,5.5971360206604,1.8042916059493999,0.13568915426731099,0.33201825618743896,-0.6502978205680849,-0.423395365476608,1.33254647254944
91,-0.044057309627532994,-0.058587610721587996,0.928907752037048,-0.14252960681915303,14.9137735366821,4.838829040527339,1.8028229475021398,0.134550467133522,0.33219388127327004,-0.686255753040314,-0.48874190449714705,1.3597403764724698
92,0.061825431883335,0.07309825718402901,0.846839010715485,-2.53894066810608,10.347440719604501,4.32079410552979,1.8026164770126298,0.13445326685905498,0.33358600735664395,-0.801546812057495,-0.67022031545639,1.3875259160995501
93,0.15542982518672901,0.015118622221053,0.802769243717194,-6.81209850311279,1.97224545478821,3.3076539039611803,1.8013451099395799,0.132401645183563,0.333416014909744,-0.74999988079071,-0.663524806499481,1.41758155822754
94,-0.012116642668842999,-0.17885886132717102,0.815989077091217,-9.98051357269287,-5.364240646362309,3.0630316734314,1.8009550571441697,0.13261824846267697,0.33326390385627697,-0.735573053359985,-0.945208072662354,1.41903221607208
95,0.016076387837529,-0.025921704247593998,0.8393601179122929,-12.2424049377441,-7.03897476196289,2.4593737125396697,1.8014165163040199,0.13072697818279302,0.33418607711792,-0.7197211980819699,-0.9409464597702021,1.48300898075104
96,-0.008205416612327,0.13952834904193898,0.858747899532318,-9.26892757415772,-3.7445502281189,2.33629727363586,1.80109131336212,0.129718109965324,0.333676278591156,-0.685706913471222,-1.06548464298248,1.4999920129776
97,-0.09673483669757901,0.015534811653196997,0.889160513877869,-3.5444598197937,1.3679887056350701,2.6949455738067596,1.8005102872848502,0.127783432602882,0.33298322558403004,-0.6689715981483461,-1.01953232288361,1.5398982763290399
98,-0.027909319847822002,0.079608641564846,0.9434932470321659,1.90485072135925,7.35325288772583,2.61666488647461,1.8016265630722,0.128450140357018,0.33157312870025607,-0.879920721054077,-1.20297527313232,1.55111110210419
99,0.041873503476381004,-0.0017754938453439998,0.97178065776825,4.72223377227783,9.843564987182619,2.44049549102783,1.80185770988464,0.126907929778099,0.33073171973228493,-1.01490879058838,-1.06480753421783,1.60135674476624
